,block_number,block_name,block_trial_count,block_pairing_definition,study_name,task_number,task_name,trial_number,trial_name,trial_response,trial_latency,trial_error,session_id
20,0,BLOCK0,20,"(unnamed)/Life,Me/Death",MentalHealth.DeathlifewordBIAT,7,pimh_deathlifeword1biat,0,Die,Me/Death,771,0,2615984175
21,0,BLOCK0,20,"(unnamed)/Life,Me/Death",MentalHealth.DeathlifewordBIAT,7,pimh_deathlifeword1biat,1,Suicide,Me/Death,393,0,2615984175
22,0,BLOCK0,20,"(unnamed)/Life,Me/Death",MentalHealth.DeathlifewordBIAT,7,pimh_deathlifeword1biat,2,Alive,(unnamed)/Life,859,0,2615984175
23,0,BLOCK0,20,"(unnamed)/Life,Me/Death",MentalHealth.DeathlifewordBIAT,7,pimh_deathlifeword1biat,3,Thrive,(unnamed)/Life,809,0,2615984175
24,0,BLOCK0,20,"(unnamed)/Life,Me/Death",MentalHealth.DeathlifewordBIAT,7,pimh_deathlifeword1biat,4,Living,(unnamed)/Life,585,0,2615984175
25,0,BLOCK0,20,"(unnamed)/Life,Me/Death",MentalHealth.DeathlifewordBIAT,7,pimh_deathlifeword1biat,5,I,Me/Death,811,0,2615984175
26,0,BLOCK0,20,"(unnamed)/Life,Me/Death",MentalHealth.DeathlifewordBIAT,7,pimh_deathlifeword1biat,6,Deceased,Me/Death,1194,0,2615984175
27,0,BLOCK0,20,"(unnamed)/Life,Me/Death",MentalHealth.DeathlifewordBIAT,7,pimh_deathlifeword1biat,7,Self,Me/Death,886,0,2615984175
28,0,BLOCK0,20,"(unnamed)/Life,Me/Death",MentalHealth.DeathlifewordBIAT,7,pimh_deathlifeword1biat,8,Dead,Me/Death,1392,0,2615984175
29,0,BLOCK0,20,"(unnamed)/Life,Me/Death",MentalHealth.DeathlifewordBIAT,7,pimh_deathlifeword1biat,9,Their,(unnamed)/Life,758,0,2615984175
30,0,BLOCK0,20,"(unnamed)/Life,Me/Death",MentalHealth.DeathlifewordBIAT,7,pimh_deathlifeword1biat,10,Thrive,(unnamed)/Life,639,0,2615984175
31,0,BLOCK0,20,"(unnamed)/Life,Me/Death",MentalHealth.DeathlifewordBIAT,7,pimh_deathlifeword1biat,11,They,(unnamed)/Life,632,0,2615984175
32,0,BLOCK0,20,"(unnamed)/Life,Me/Death",MentalHealth.DeathlifewordBIAT,7,pimh_deathlifeword1biat,12,Alive,(unnamed)/Life,791,0,2615984175
33,0,BLOCK0,20,"(unnamed)/Life,Me/Death",MentalHealth.DeathlifewordBIAT,7,pimh_deathlifeword1biat,13,Mine,Me/Death,1122,0,2615984175
34,0,BLOCK0,20,"(unnamed)/Life,Me/Death",MentalHealth.DeathlifewordBIAT,7,pimh_deathlifeword1biat,14,Breathing,(unnamed)/Life,1354,0,2615984175
35,0,BLOCK0,20,"(unnamed)/Life,Me/Death",MentalHealth.DeathlifewordBIAT,7,pimh_deathlifeword1biat,15,Them,(unnamed)/Life,487,0,2615984175
36,0,BLOCK0,20,"(unnamed)/Life,Me/Death",MentalHealth.DeathlifewordBIAT,7,pimh_deathlifeword1biat,16,Die,Me/Death,1370,0,2615984175
37,0,BLOCK0,20,"(unnamed)/Life,Me/Death",MentalHealth.DeathlifewordBIAT,7,pimh_deathlifeword1biat,17,Myself,Me/Death,562,0,2615984175
38,0,BLOCK0,20,"(unnamed)/Life,Me/Death",MentalHealth.DeathlifewordBIAT,7,pimh_deathlifeword1biat,18,Suicide,Me/Death,1286,0,2615984175
1,0,BLOCK0,20,"(unnamed)/Life,Me/Death",MentalHealth.DeathlifewordBIAT,7,pimh_deathlifeword1biat,19,Other,(unnamed)/Life,520,0,2615984175
0,1,BLOCK1,20,"(unnamed)/Death,Me/Life",MentalHealth.DeathlifewordBIAT,7,pimh_deathlifeword1biat,0,Suicide,(unnamed)/Death,2102,0,2615984175
39,1,BLOCK1,20,"(unnamed)/Death,Me/Life",MentalHealth.DeathlifewordBIAT,7,pimh_deathlifeword1biat,1,Breathing,Me/Life,913,0,2615984175
2,1,BLOCK1,20,"(unnamed)/Death,Me/Life",MentalHealth.DeathlifewordBIAT,7,pimh_deathlifeword1biat,2,Deceased,(unnamed)/Death,1057,0,2615984175
3,1,BLOCK1,20,"(unnamed)/Death,Me/Life",MentalHealth.DeathlifewordBIAT,7,pimh_deathlifeword1biat,3,Alive,Me/Life,928,0,2615984175
4,1,BLOCK1,20,"(unnamed)/Death,Me/Life",MentalHealth.DeathlifewordBIAT,7,pimh_deathlifeword1biat,4,Alive,Me/Life,420,0,2615984175
5,1,BLOCK1,20,"(unnamed)/Death,Me/Life",MentalHealth.DeathlifewordBIAT,7,pimh_deathlifeword1biat,5,Myself,Me/Life,1645,0,2615984175
6,1,BLOCK1,20,"(unnamed)/Death,Me/Life",MentalHealth.DeathlifewordBIAT,7,pimh_deathlifeword1biat,6,Dead,(unnamed)/Death,560,0,2615984175
7,1,BLOCK1,20,"(unnamed)/Death,Me/Life",MentalHealth.DeathlifewordBIAT,7,pimh_deathlifeword1biat,7,Them,(unnamed)/Death,482,0,2615984175
8,1,BLOCK1,20,"(unnamed)/Death,Me/Life",MentalHealth.DeathlifewordBIAT,7,pimh_deathlifeword1biat,8,Deceased,(unnamed)/Death,688,0,2615984175
9,1,BLOCK1,20,"(unnamed)/Death,Me/Life",MentalHealth.DeathlifewordBIAT,7,pimh_deathlifeword1biat,9,Self,Me/Life,796,0,2615984175
10,1,BLOCK1,20,"(unnamed)/Death,Me/Life",MentalHealth.DeathlifewordBIAT,7,pimh_deathlifeword1biat,10,Thrive,Me/Life,1040,1,2615984175
11,1,BLOCK1,20,"(unnamed)/Death,Me/Life",MentalHealth.DeathlifewordBIAT,7,pimh_deathlifeword1biat,11,Their,(unnamed)/Death,1410,0,2615984175
12,1,BLOCK1,20,"(unnamed)/Death,Me/Life",MentalHealth.DeathlifewordBIAT,7,pimh_deathlifeword1biat,12,Die,(unnamed)/Death,678,0,2615984175
13,1,BLOCK1,20,"(unnamed)/Death,Me/Life",MentalHealth.DeathlifewordBIAT,7,pimh_deathlifeword1biat,13,Other,(unnamed)/Death,557,0,2615984175
14,1,BLOCK1,20,"(unnamed)/Death,Me/Life",MentalHealth.DeathlifewordBIAT,7,pimh_deathlifeword1biat,14,Living,Me/Life,525,0,2615984175
15,1,BLOCK1,20,"(unnamed)/Death,Me/Life",MentalHealth.DeathlifewordBIAT,7,pimh_deathlifeword1biat,15,They,(unnamed)/Death,414,0,2615984175
16,1,BLOCK1,20,"(unnamed)/Death,Me/Life",MentalHealth.DeathlifewordBIAT,7,pimh_deathlifeword1biat,16,Suicide,(unnamed)/Death,512,0,2615984175
17,1,BLOCK1,20,"(unnamed)/Death,Me/Life",MentalHealth.DeathlifewordBIAT,7,pimh_deathlifeword1biat,17,Mine,Me/Life,534,0,2615984175
18,1,BLOCK1,20,"(unnamed)/Death,Me/Life",MentalHealth.DeathlifewordBIAT,7,pimh_deathlifeword1biat,18,Breathing,Me/Life,926,1,2615984175
19,1,BLOCK1,20,"(unnamed)/Death,Me/Life",MentalHealth.DeathlifewordBIAT,7,pimh_deathlifeword1biat,19,I,Me/Life,1026,0,2615984175
86,0,BLOCK0,20,"(unnamed)/Life,Me/Death",MentalHealth.DeathlifewordBIAT,5,pimh_deathlifeword1biat,0,Die,Me/Death,959,0,2615984709
87,0,BLOCK0,20,"(unnamed)/Life,Me/Death",MentalHealth.DeathlifewordBIAT,5,pimh_deathlifeword1biat,1,Deceased,Me/Death,764,0,2615984709
128,0,BLOCK0,20,"(unnamed)/Life,Me/Death",MentalHealth.DeathlifewordBIAT,5,pimh_deathlifeword1biat,2,Breathing,(unnamed)/Life,1453,0,2615984709
129,0,BLOCK0,20,"(unnamed)/Life,Me/Death",MentalHealth.DeathlifewordBIAT,5,pimh_deathlifeword1biat,3,Alive,(unnamed)/Life,1693,0,2615984709
130,0,BLOCK0,20,"(unnamed)/Life,Me/Death",MentalHealth.DeathlifewordBIAT,5,pimh_deathlifeword1biat,4,Breathing,(unnamed)/Life,782,0,2615984709
131,0,BLOCK0,20,"(unnamed)/Life,Me/Death",MentalHealth.DeathlifewordBIAT,5,pimh_deathlifeword1biat,5,Mine,Me/Death,484,0,2615984709
132,0,BLOCK0,20,"(unnamed)/Life,Me/Death",MentalHealth.DeathlifewordBIAT,5,pimh_deathlifeword1biat,6,Dead,Me/Death,1257,0,2615984709
133,0,BLOCK0,20,"(unnamed)/Life,Me/Death",MentalHealth.DeathlifewordBIAT,5,pimh_deathlifeword1biat,7,I,Me/Death,668,0,2615984709
134,0,BLOCK0,20,"(unnamed)/Life,Me/Death",MentalHealth.DeathlifewordBIAT,5,pimh_deathlifeword1biat,8,Die,Me/Death,2268,0,2615984709
135,0,BLOCK0,20,"(unnamed)/Life,Me/Death",MentalHealth.DeathlifewordBIAT,5,pimh_deathlifeword1biat,9,Them,(unnamed)/Life,456,0,2615984709
136,0,BLOCK0,20,"(unnamed)/Life,Me/Death",MentalHealth.DeathlifewordBIAT,5,pimh_deathlifeword1biat,10,Thrive,(unnamed)/Life,480,0,2615984709
137,0,BLOCK0,20,"(unnamed)/Life,Me/Death",MentalHealth.DeathlifewordBIAT,5,pimh_deathlifeword1biat,11,Other,(unnamed)/Life,2644,0,2615984709
138,0,BLOCK0,20,"(unnamed)/Life,Me/Death",MentalHealth.DeathlifewordBIAT,5,pimh_deathlifeword1biat,12,Living,(unnamed)/Life,739,0,2615984709
139,0,BLOCK0,20,"(unnamed)/Life,Me/Death",MentalHealth.DeathlifewordBIAT,5,pimh_deathlifeword1biat,13,Myself,Me/Death,721,0,2615984709
140,0,BLOCK0,20,"(unnamed)/Life,Me/Death",MentalHealth.DeathlifewordBIAT,5,pimh_deathlifeword1biat,14,Alive,(unnamed)/Life,909,0,2615984709
141,0,BLOCK0,20,"(unnamed)/Life,Me/Death",MentalHealth.DeathlifewordBIAT,5,pimh_deathlifeword1biat,15,They,(unnamed)/Life,745,0,2615984709
142,0,BLOCK0,20,"(unnamed)/Life,Me/Death",MentalHealth.DeathlifewordBIAT,5,pimh_deathlifeword1biat,16,Deceased,Me/Death,580,0,2615984709
143,0,BLOCK0,20,"(unnamed)/Life,Me/Death",MentalHealth.DeathlifewordBIAT,5,pimh_deathlifeword1biat,17,Their,(unnamed)/Life,929,0,2615984709
144,0,BLOCK0,20,"(unnamed)/Life,Me/Death",MentalHealth.DeathlifewordBIAT,5,pimh_deathlifeword1biat,18,Suicide,Me/Death,611,0,2615984709
145,0,BLOCK0,20,"(unnamed)/Life,Me/Death",MentalHealth.DeathlifewordBIAT,5,pimh_deathlifeword1biat,19,Self,Me/Death,3120,0,2615984709
90,1,BLOCK1,20,"(unnamed)/Death,Me/Life",MentalHealth.DeathlifewordBIAT,5,pimh_deathlifeword1biat,0,Deceased,(unnamed)/Death,404,0,2615984709
91,1,BLOCK1,20,"(unnamed)/Death,Me/Life",MentalHealth.DeathlifewordBIAT,5,pimh_deathlifeword1biat,1,Dead,(unnamed)/Death,813,0,2615984709
92,1,BLOCK1,20,"(unnamed)/Death,Me/Life",MentalHealth.DeathlifewordBIAT,5,pimh_deathlifeword1biat,2,Thrive,Me/Life,569,0,2615984709
93,1,BLOCK1,20,"(unnamed)/Death,Me/Life",MentalHealth.DeathlifewordBIAT,5,pimh_deathlifeword1biat,3,Living,Me/Life,717,0,2615984709
94,1,BLOCK1,20,"(unnamed)/Death,Me/Life",MentalHealth.DeathlifewordBIAT,5,pimh_deathlifeword1biat,4,Breathing,Me/Life,559,0,2615984709
95,1,BLOCK1,20,"(unnamed)/Death,Me/Life",MentalHealth.DeathlifewordBIAT,5,pimh_deathlifeword1biat,5,They,(unnamed)/Death,876,0,2615984709
96,1,BLOCK1,20,"(unnamed)/Death,Me/Life",MentalHealth.DeathlifewordBIAT,5,pimh_deathlifeword1biat,6,Suicide,(unnamed)/Death,1048,0,2615984709
97,1,BLOCK1,20,"(unnamed)/Death,Me/Life",MentalHealth.DeathlifewordBIAT,5,pimh_deathlifeword1biat,7,I,Me/Life,1613,0,2615984709
98,1,BLOCK1,20,"(unnamed)/Death,Me/Life",MentalHealth.DeathlifewordBIAT,5,pimh_deathlifeword1biat,8,Living,Me/Life,1620,0,2615984709
99,1,BLOCK1,20,"(unnamed)/Death,Me/Life",MentalHealth.DeathlifewordBIAT,5,pimh_deathlifeword1biat,9,Self,Me/Life,2152,0,2615984709
100,1,BLOCK1,20,"(unnamed)/Death,Me/Life",MentalHealth.DeathlifewordBIAT,5,pimh_deathlifeword1biat,10,Dead,(unnamed)/Death,1096,0,2615984709
101,1,BLOCK1,20,"(unnamed)/Death,Me/Life",MentalHealth.DeathlifewordBIAT,5,pimh_deathlifeword1biat,11,Them,(unnamed)/Death,1029,0,2615984709
102,1,BLOCK1,20,"(unnamed)/Death,Me/Life",MentalHealth.DeathlifewordBIAT,5,pimh_deathlifeword1biat,12,Alive,Me/Life,1123,0,2615984709
103,1,BLOCK1,20,"(unnamed)/Death,Me/Life",MentalHealth.DeathlifewordBIAT,5,pimh_deathlifeword1biat,13,Their,(unnamed)/Death,617,0,2615984709
104,1,BLOCK1,20,"(unnamed)/Death,Me/Life",MentalHealth.DeathlifewordBIAT,5,pimh_deathlifeword1biat,14,Die,(unnamed)/Death,816,0,2615984709
105,1,BLOCK1,20,"(unnamed)/Death,Me/Life",MentalHealth.DeathlifewordBIAT,5,pimh_deathlifeword1biat,15,Myself,Me/Life,1171,0,2615984709
106,1,BLOCK1,20,"(unnamed)/Death,Me/Life",MentalHealth.DeathlifewordBIAT,5,pimh_deathlifeword1biat,16,Deceased,(unnamed)/Death,547,0,2615984709
107,1,BLOCK1,20,"(unnamed)/Death,Me/Life",MentalHealth.DeathlifewordBIAT,5,pimh_deathlifeword1biat,17,Other,(unnamed)/Death,677,0,2615984709
108,1,BLOCK1,20,"(unnamed)/Death,Me/Life",MentalHealth.DeathlifewordBIAT,5,pimh_deathlifeword1biat,18,Thrive,Me/Life,1247,0,2615984709
109,1,BLOCK1,20,"(unnamed)/Death,Me/Life",MentalHealth.DeathlifewordBIAT,5,pimh_deathlifeword1biat,19,Mine,Me/Life,1052,0,2615984709
111,2,BLOCK2,20,"(unnamed)/Life,Me/Death",MentalHealth.DeathlifewordBIAT,5,pimh_deathlifeword1biat,0,Alive,(unnamed)/Life,532,0,2615984709
112,2,BLOCK2,20,"(unnamed)/Life,Me/Death",MentalHealth.DeathlifewordBIAT,5,pimh_deathlifeword1biat,1,Deceased,Me/Death,1434,0,2615984709
113,2,BLOCK2,20,"(unnamed)/Life,Me/Death",MentalHealth.DeathlifewordBIAT,5,pimh_deathlifeword1biat,2,Thrive,(unnamed)/Life,623,0,2615984709
110,2,BLOCK2,20,"(unnamed)/Life,Me/Death",MentalHealth.DeathlifewordBIAT,5,pimh_deathlifeword1biat,3,Die,Me/Death,846,0,2615984709
114,2,BLOCK2,20,"(unnamed)/Life,Me/Death",MentalHealth.DeathlifewordBIAT,5,pimh_deathlifeword1biat,4,Deceased,Me/Death,520,0,2615984709
115,2,BLOCK2,20,"(unnamed)/Life,Me/Death",MentalHealth.DeathlifewordBIAT,5,pimh_deathlifeword1biat,5,Self,Me/Death,844,0,2615984709
116,2,BLOCK2,20,"(unnamed)/Life,Me/Death",MentalHealth.DeathlifewordBIAT,5,pimh_deathlifeword1biat,6,Breathing,(unnamed)/Life,911,0,2615984709
117,2,BLOCK2,20,"(unnamed)/Life,Me/Death",MentalHealth.DeathlifewordBIAT,5,pimh_deathlifeword1biat,7,Mine,Me/Death,429,0,2615984709
118,2,BLOCK2,20,"(unnamed)/Life,Me/Death",MentalHealth.DeathlifewordBIAT,5,pimh_deathlifeword1biat,8,Alive,(unnamed)/Life,883,1,2615984709
119,2,BLOCK2,20,"(unnamed)/Life,Me/Death",MentalHealth.DeathlifewordBIAT,5,pimh_deathlifeword1biat,9,Their,(unnamed)/Life,505,0,2615984709
120,2,BLOCK2,20,"(unnamed)/Life,Me/Death",MentalHealth.DeathlifewordBIAT,5,pimh_deathlifeword1biat,10,Suicide,Me/Death,559,0,2615984709
121,2,BLOCK2,20,"(unnamed)/Life,Me/Death",MentalHealth.DeathlifewordBIAT,5,pimh_deathlifeword1biat,11,Other,(unnamed)/Life,595,0,2615984709
122,2,BLOCK2,20,"(unnamed)/Life,Me/Death",MentalHealth.DeathlifewordBIAT,5,pimh_deathlifeword1biat,12,Living,(unnamed)/Life,727,0,2615984709
123,2,BLOCK2,20,"(unnamed)/Life,Me/Death",MentalHealth.DeathlifewordBIAT,5,pimh_deathlifeword1biat,13,Myself,Me/Death,663,0,2615984709
124,2,BLOCK2,20,"(unnamed)/Life,Me/Death",MentalHealth.DeathlifewordBIAT,5,pimh_deathlifeword1biat,14,Dead,Me/Death,762,0,2615984709
125,2,BLOCK2,20,"(unnamed)/Life,Me/Death",MentalHealth.DeathlifewordBIAT,5,pimh_deathlifeword1biat,15,They,(unnamed)/Life,769,0,2615984709
126,2,BLOCK2,20,"(unnamed)/Life,Me/Death",MentalHealth.DeathlifewordBIAT,5,pimh_deathlifeword1biat,16,Thrive,(unnamed)/Life,362,1,2615984709
127,2,BLOCK2,20,"(unnamed)/Life,Me/Death",MentalHealth.DeathlifewordBIAT,5,pimh_deathlifeword1biat,17,Them,(unnamed)/Life,778,0,2615984709
64,2,BLOCK2,20,"(unnamed)/Life,Me/Death",MentalHealth.DeathlifewordBIAT,5,pimh_deathlifeword1biat,18,Die,Me/Death,822,0,2615984709
65,2,BLOCK2,20,"(unnamed)/Life,Me/Death",MentalHealth.DeathlifewordBIAT,5,pimh_deathlifeword1biat,19,I,Me/Death,506,0,2615984709
146,3,BLOCK3,20,"(unnamed)/Death,Me/Life",MentalHealth.DeathlifewordBIAT,5,pimh_deathlifeword1biat,0,Thrive,Me/Life,850,0,2615984709
147,3,BLOCK3,20,"(unnamed)/Death,Me/Life",MentalHealth.DeathlifewordBIAT,5,pimh_deathlifeword1biat,1,Suicide,(unnamed)/Death,1637,0,2615984709
148,3,BLOCK3,20,"(unnamed)/Death,Me/Life",MentalHealth.DeathlifewordBIAT,5,pimh_deathlifeword1biat,2,Alive,Me/Life,734,0,2615984709
149,3,BLOCK3,20,"(unnamed)/Death,Me/Life",MentalHealth.DeathlifewordBIAT,5,pimh_deathlifeword1biat,3,Dead,(unnamed)/Death,628,0,2615984709
150,3,BLOCK3,20,"(unnamed)/Death,Me/Life",MentalHealth.DeathlifewordBIAT,5,pimh_deathlifeword1biat,4,Suicide,(unnamed)/Death,528,0,2615984709
151,3,BLOCK3,20,"(unnamed)/Death,Me/Life",MentalHealth.DeathlifewordBIAT,5,pimh_deathlifeword1biat,5,Mine,Me/Life,521,0,2615984709
152,3,BLOCK3,20,"(unnamed)/Death,Me/Life",MentalHealth.DeathlifewordBIAT,5,pimh_deathlifeword1biat,6,Alive,Me/Life,2109,0,2615984709
153,3,BLOCK3,20,"(unnamed)/Death,Me/Life",MentalHealth.DeathlifewordBIAT,5,pimh_deathlifeword1biat,7,Self,Me/Life,443,0,2615984709
154,3,BLOCK3,20,"(unnamed)/Death,Me/Life",MentalHealth.DeathlifewordBIAT,5,pimh_deathlifeword1biat,8,Living,Me/Life,1549,0,2615984709
155,3,BLOCK3,20,"(unnamed)/Death,Me/Life",MentalHealth.DeathlifewordBIAT,5,pimh_deathlifeword1biat,9,Them,(unnamed)/Death,860,0,2615984709
156,3,BLOCK3,20,"(unnamed)/Death,Me/Life",MentalHealth.DeathlifewordBIAT,5,pimh_deathlifeword1biat,10,Die,(unnamed)/Death,1137,0,2615984709
157,3,BLOCK3,20,"(unnamed)/Death,Me/Life",MentalHealth.DeathlifewordBIAT,5,pimh_deathlifeword1biat,11,Other,(unnamed)/Death,433,0,2615984709
158,3,BLOCK3,20,"(unnamed)/Death,Me/Life",MentalHealth.DeathlifewordBIAT,5,pimh_deathlifeword1biat,12,Breathing,Me/Life,1214,0,2615984709
159,3,BLOCK3,20,"(unnamed)/Death,Me/Life",MentalHealth.DeathlifewordBIAT,5,pimh_deathlifeword1biat,13,I,Me/Life,562,0,2615984709
40,3,BLOCK3,20,"(unnamed)/Death,Me/Life",MentalHealth.DeathlifewordBIAT,5,pimh_deathlifeword1biat,14,Dead,(unnamed)/Death,543,0,2615984709
41,3,BLOCK3,20,"(unnamed)/Death,Me/Life",MentalHealth.DeathlifewordBIAT,5,pimh_deathlifeword1biat,15,Myself,Me/Life,503,0,2615984709
42,3,BLOCK3,20,"(unnamed)/Death,Me/Life",MentalHealth.DeathlifewordBIAT,5,pimh_deathlifeword1biat,16,Thrive,Me/Life,544,0,2615984709
43,3,BLOCK3,20,"(unnamed)/Death,Me/Life",MentalHealth.DeathlifewordBIAT,5,pimh_deathlifeword1biat,17,Their,(unnamed)/Death,1022,0,2615984709
44,3,BLOCK3,20,"(unnamed)/Death,Me/Life",MentalHealth.DeathlifewordBIAT,5,pimh_deathlifeword1biat,18,Deceased,(unnamed)/Death,752,0,2615984709
45,3,BLOCK3,20,"(unnamed)/Death,Me/Life",MentalHealth.DeathlifewordBIAT,5,pimh_deathlifeword1biat,19,They,(unnamed)/Death,1294,0,2615984709
66,4,BLOCK4,20,"(unnamed)/Life,Me/Death",MentalHealth.DeathlifewordBIAT,5,pimh_deathlifeword1biat,0,Dead,Me/Death,96,0,2615984709
67,4,BLOCK4,20,"(unnamed)/Life,Me/Death",MentalHealth.DeathlifewordBIAT,5,pimh_deathlifeword1biat,1,Thrive,(unnamed)/Life,756,0,2615984709
68,4,BLOCK4,20,"(unnamed)/Life,Me/Death",MentalHealth.DeathlifewordBIAT,5,pimh_deathlifeword1biat,2,Suicide,Me/Death,1137,0,2615984709
69,4,BLOCK4,20,"(unnamed)/Life,Me/Death",MentalHealth.DeathlifewordBIAT,5,pimh_deathlifeword1biat,3,Alive,(unnamed)/Life,1063,1,2615984709
70,4,BLOCK4,20,"(unnamed)/Life,Me/Death",MentalHealth.DeathlifewordBIAT,5,pimh_deathlifeword1biat,4,Die,Me/Death,895,0,2615984709
72,4,BLOCK4,20,"(unnamed)/Life,Me/Death",MentalHealth.DeathlifewordBIAT,5,pimh_deathlifeword1biat,5,Myself,Me/Death,967,0,2615984709
73,4,BLOCK4,20,"(unnamed)/Life,Me/Death",MentalHealth.DeathlifewordBIAT,5,pimh_deathlifeword1biat,6,Breathing,(unnamed)/Life,742,0,2615984709
74,4,BLOCK4,20,"(unnamed)/Life,Me/Death",MentalHealth.DeathlifewordBIAT,5,pimh_deathlifeword1biat,7,I,Me/Death,625,0,2615984709
71,4,BLOCK4,20,"(unnamed)/Life,Me/Death",MentalHealth.DeathlifewordBIAT,5,pimh_deathlifeword1biat,8,Alive,(unnamed)/Life,1082,0,2615984709
75,4,BLOCK4,20,"(unnamed)/Life,Me/Death",MentalHealth.DeathlifewordBIAT,5,pimh_deathlifeword1biat,9,Their,(unnamed)/Life,798,0,2615984709
76,4,BLOCK4,20,"(unnamed)/Life,Me/Death",MentalHealth.DeathlifewordBIAT,5,pimh_deathlifeword1biat,10,Deceased,Me/Death,841,0,2615984709
77,4,BLOCK4,20,"(unnamed)/Life,Me/Death",MentalHealth.DeathlifewordBIAT,5,pimh_deathlifeword1biat,11,Other,(unnamed)/Life,715,0,2615984709
78,4,BLOCK4,20,"(unnamed)/Life,Me/Death",MentalHealth.DeathlifewordBIAT,5,pimh_deathlifeword1biat,12,Dead,Me/Death,686,0,2615984709
79,4,BLOCK4,20,"(unnamed)/Life,Me/Death",MentalHealth.DeathlifewordBIAT,5,pimh_deathlifeword1biat,13,Them,(unnamed)/Life,377,0,2615984709
80,4,BLOCK4,20,"(unnamed)/Life,Me/Death",MentalHealth.DeathlifewordBIAT,5,pimh_deathlifeword1biat,14,Living,(unnamed)/Life,967,1,2615984709
81,4,BLOCK4,20,"(unnamed)/Life,Me/Death",MentalHealth.DeathlifewordBIAT,5,pimh_deathlifeword1biat,15,Self,Me/Death,680,1,2615984709
82,4,BLOCK4,20,"(unnamed)/Life,Me/Death",MentalHealth.DeathlifewordBIAT,5,pimh_deathlifeword1biat,16,Suicide,Me/Death,1207,0,2615984709
83,4,BLOCK4,20,"(unnamed)/Life,Me/Death",MentalHealth.DeathlifewordBIAT,5,pimh_deathlifeword1biat,17,Mine,Me/Death,1522,0,2615984709
84,4,BLOCK4,20,"(unnamed)/Life,Me/Death",MentalHealth.DeathlifewordBIAT,5,pimh_deathlifeword1biat,18,Thrive,(unnamed)/Life,427,0,2615984709
85,4,BLOCK4,20,"(unnamed)/Life,Me/Death",MentalHealth.DeathlifewordBIAT,5,pimh_deathlifeword1biat,19,They,(unnamed)/Life,893,0,2615984709
46,5,BLOCK5,20,"(unnamed)/Death,Me/Life",MentalHealth.DeathlifewordBIAT,5,pimh_deathlifeword1biat,0,Living,Me/Life,697,0,2615984709
47,5,BLOCK5,20,"(unnamed)/Death,Me/Life",MentalHealth.DeathlifewordBIAT,5,pimh_deathlifeword1biat,1,Breathing,Me/Life,612,0,2615984709
48,5,BLOCK5,20,"(unnamed)/Death,Me/Life",MentalHealth.DeathlifewordBIAT,5,pimh_deathlifeword1biat,2,Dead,(unnamed)/Death,10563,0,2615984709
49,5,BLOCK5,20,"(unnamed)/Death,Me/Life",MentalHealth.DeathlifewordBIAT,5,pimh_deathlifeword1biat,3,Deceased,(unnamed)/Death,624,0,2615984709
50,5,BLOCK5,20,"(unnamed)/Death,Me/Life",MentalHealth.DeathlifewordBIAT,5,pimh_deathlifeword1biat,4,Deceased,(unnamed)/Death,1203,0,2615984709
51,5,BLOCK5,20,"(unnamed)/Death,Me/Life",MentalHealth.DeathlifewordBIAT,5,pimh_deathlifeword1biat,5,Them,(unnamed)/Death,997,0,2615984709
52,5,BLOCK5,20,"(unnamed)/Death,Me/Life",MentalHealth.DeathlifewordBIAT,5,pimh_deathlifeword1biat,6,Suicide,(unnamed)/Death,548,0,2615984709
53,5,BLOCK5,20,"(unnamed)/Death,Me/Life",MentalHealth.DeathlifewordBIAT,5,pimh_deathlifeword1biat,7,I,Me/Life,1611,0,2615984709
54,5,BLOCK5,20,"(unnamed)/Death,Me/Life",MentalHealth.DeathlifewordBIAT,5,pimh_deathlifeword1biat,8,Living,Me/Life,832,0,2615984709
55,5,BLOCK5,20,"(unnamed)/Death,Me/Life",MentalHealth.DeathlifewordBIAT,5,pimh_deathlifeword1biat,9,Their,(unnamed)/Death,862,0,2615984709
56,5,BLOCK5,20,"(unnamed)/Death,Me/Life",MentalHealth.DeathlifewordBIAT,5,pimh_deathlifeword1biat,10,Breathing,Me/Life,3383,0,2615984709
57,5,BLOCK5,20,"(unnamed)/Death,Me/Life",MentalHealth.DeathlifewordBIAT,5,pimh_deathlifeword1biat,11,Self,Me/Life,549,0,2615984709
58,5,BLOCK5,20,"(unnamed)/Death,Me/Life",MentalHealth.DeathlifewordBIAT,5,pimh_deathlifeword1biat,12,Alive,Me/Life,719,0,2615984709
59,5,BLOCK5,20,"(unnamed)/Death,Me/Life",MentalHealth.DeathlifewordBIAT,5,pimh_deathlifeword1biat,13,Myself,Me/Life,488,0,2615984709
60,5,BLOCK5,20,"(unnamed)/Death,Me/Life",MentalHealth.DeathlifewordBIAT,5,pimh_deathlifeword1biat,14,Dead,(unnamed)/Death,550,0,2615984709
61,5,BLOCK5,20,"(unnamed)/Death,Me/Life",MentalHealth.DeathlifewordBIAT,5,pimh_deathlifeword1biat,15,They,(unnamed)/Death,549,0,2615984709
62,5,BLOCK5,20,"(unnamed)/Death,Me/Life",MentalHealth.DeathlifewordBIAT,5,pimh_deathlifeword1biat,16,Thrive,Me/Life,958,1,2615984709
63,5,BLOCK5,20,"(unnamed)/Death,Me/Life",MentalHealth.DeathlifewordBIAT,5,pimh_deathlifeword1biat,17,Other,(unnamed)/Death,785,1,2615984709
88,5,BLOCK5,20,"(unnamed)/Death,Me/Life",MentalHealth.DeathlifewordBIAT,5,pimh_deathlifeword1biat,18,Die,(unnamed)/Death,6650,0,2615984709
89,5,BLOCK5,20,"(unnamed)/Death,Me/Life",MentalHealth.DeathlifewordBIAT,5,pimh_deathlifeword1biat,19,Mine,Me/Life,763,0,2615984709
184,0,BLOCK0,20,"(unnamed)/Death,Me/Life",MentalHealth.DeathlifewordBIAT,9,pimh_deathlifeword2biat,0,Dead,(unnamed)/Death,1191,1,2615989949
185,0,BLOCK0,20,"(unnamed)/Death,Me/Life",MentalHealth.DeathlifewordBIAT,9,pimh_deathlifeword2biat,1,Deceased,(unnamed)/Death,33,0,2615989949
187,0,BLOCK0,20,"(unnamed)/Death,Me/Life",MentalHealth.DeathlifewordBIAT,9,pimh_deathlifeword2biat,2,Living,Me/Life,599,0,2615989949
188,0,BLOCK0,20,"(unnamed)/Death,Me/Life",MentalHealth.DeathlifewordBIAT,9,pimh_deathlifeword2biat,3,Thrive,Me/Life,893,0,2615989949
189,0,BLOCK0,20,"(unnamed)/Death,Me/Life",MentalHealth.DeathlifewordBIAT,9,pimh_deathlifeword2biat,4,Breathing,Me/Life,636,0,2615989949
186,0,BLOCK0,20,"(unnamed)/Death,Me/Life",MentalHealth.DeathlifewordBIAT,9,pimh_deathlifeword2biat,5,They,(unnamed)/Death,809,0,2615989949
190,0,BLOCK0,20,"(unnamed)/Death,Me/Life",MentalHealth.DeathlifewordBIAT,9,pimh_deathlifeword2biat,6,Suicide,(unnamed)/Death,710,0,2615989949
191,0,BLOCK0,20,"(unnamed)/Death,Me/Life",MentalHealth.DeathlifewordBIAT,9,pimh_deathlifeword2biat,7,Other,(unnamed)/Death,767,0,2615989949
192,0,BLOCK0,20,"(unnamed)/Death,Me/Life",MentalHealth.DeathlifewordBIAT,9,pimh_deathlifeword2biat,8,Living,Me/Life,523,0,2615989949
193,0,BLOCK0,20,"(unnamed)/Death,Me/Life",MentalHealth.DeathlifewordBIAT,9,pimh_deathlifeword2biat,9,Myself,Me/Life,1003,0,2615989949
194,0,BLOCK0,20,"(unnamed)/Death,Me/Life",MentalHealth.DeathlifewordBIAT,9,pimh_deathlifeword2biat,10,Dead,(unnamed)/Death,1048,0,2615989949
195,0,BLOCK0,20,"(unnamed)/Death,Me/Life",MentalHealth.DeathlifewordBIAT,9,pimh_deathlifeword2biat,11,I,Me/Life,1129,0,2615989949
196,0,BLOCK0,20,"(unnamed)/Death,Me/Life",MentalHealth.DeathlifewordBIAT,9,pimh_deathlifeword2biat,12,Thrive,Me/Life,1148,0,2615989949
197,0,BLOCK0,20,"(unnamed)/Death,Me/Life",MentalHealth.DeathlifewordBIAT,9,pimh_deathlifeword2biat,13,Mine,Me/Life,1348,0,2615989949
198,0,BLOCK0,20,"(unnamed)/Death,Me/Life",MentalHealth.DeathlifewordBIAT,9,pimh_deathlifeword2biat,14,Deceased,(unnamed)/Death,504,0,2615989949
199,0,BLOCK0,20,"(unnamed)/Death,Me/Life",MentalHealth.DeathlifewordBIAT,9,pimh_deathlifeword2biat,15,Them,(unnamed)/Death,367,0,2615989949
200,0,BLOCK0,20,"(unnamed)/Death,Me/Life",MentalHealth.DeathlifewordBIAT,9,pimh_deathlifeword2biat,16,Alive,Me/Life,625,0,2615989949
201,0,BLOCK0,20,"(unnamed)/Death,Me/Life",MentalHealth.DeathlifewordBIAT,9,pimh_deathlifeword2biat,17,Their,(unnamed)/Death,546,0,2615989949
202,0,BLOCK0,20,"(unnamed)/Death,Me/Life",MentalHealth.DeathlifewordBIAT,9,pimh_deathlifeword2biat,18,Die,(unnamed)/Death,763,0,2615989949
203,0,BLOCK0,20,"(unnamed)/Death,Me/Life",MentalHealth.DeathlifewordBIAT,9,pimh_deathlifeword2biat,19,Self,Me/Life,71,0,2615989949
248,1,BLOCK1,20,"(unnamed)/Life,Me/Death",MentalHealth.DeathlifewordBIAT,9,pimh_deathlifeword2biat,0,Thrive,(unnamed)/Life,1494,0,2615989949
249,1,BLOCK1,20,"(unnamed)/Life,Me/Death",MentalHealth.DeathlifewordBIAT,9,pimh_deathlifeword2biat,1,Living,(unnamed)/Life,1417,0,2615989949
250,1,BLOCK1,20,"(unnamed)/Life,Me/Death",MentalHealth.DeathlifewordBIAT,9,pimh_deathlifeword2biat,2,Deceased,Me/Death,914,0,2615989949
251,1,BLOCK1,20,"(unnamed)/Life,Me/Death",MentalHealth.DeathlifewordBIAT,9,pimh_deathlifeword2biat,3,Suicide,Me/Death,568,0,2615989949
252,1,BLOCK1,20,"(unnamed)/Life,Me/Death",MentalHealth.DeathlifewordBIAT,9,pimh_deathlifeword2biat,4,Deceased,Me/Death,830,0,2615989949
253,1,BLOCK1,20,"(unnamed)/Life,Me/Death",MentalHealth.DeathlifewordBIAT,9,pimh_deathlifeword2biat,5,Other,(unnamed)/Life,536,0,2615989949
254,1,BLOCK1,20,"(unnamed)/Life,Me/Death",MentalHealth.DeathlifewordBIAT,9,pimh_deathlifeword2biat,6,Breathing,(unnamed)/Life,614,0,2615989949
255,1,BLOCK1,20,"(unnamed)/Life,Me/Death",MentalHealth.DeathlifewordBIAT,9,pimh_deathlifeword2biat,7,They,(unnamed)/Life,474,1,2615989949
256,1,BLOCK1,20,"(unnamed)/Life,Me/Death",MentalHealth.DeathlifewordBIAT,9,pimh_deathlifeword2biat,8,Die,Me/Death,1130,0,2615989949
257,1,BLOCK1,20,"(unnamed)/Life,Me/Death",MentalHealth.DeathlifewordBIAT,9,pimh_deathlifeword2biat,9,Myself,Me/Death,841,1,2615989949
258,1,BLOCK1,20,"(unnamed)/Life,Me/Death",MentalHealth.DeathlifewordBIAT,9,pimh_deathlifeword2biat,10,Alive,(unnamed)/Life,518,1,2615989949
260,1,BLOCK1,20,"(unnamed)/Life,Me/Death",MentalHealth.DeathlifewordBIAT,9,pimh_deathlifeword2biat,11,I,Me/Death,770,1,2615989949
261,1,BLOCK1,20,"(unnamed)/Life,Me/Death",MentalHealth.DeathlifewordBIAT,9,pimh_deathlifeword2biat,12,Living,(unnamed)/Life,797,1,2615989949
262,1,BLOCK1,20,"(unnamed)/Life,Me/Death",MentalHealth.DeathlifewordBIAT,9,pimh_deathlifeword2biat,13,Self,Me/Death,1301,0,2615989949
259,1,BLOCK1,20,"(unnamed)/Life,Me/Death",MentalHealth.DeathlifewordBIAT,9,pimh_deathlifeword2biat,14,Suicide,Me/Death,1477,1,2615989949
263,1,BLOCK1,20,"(unnamed)/Life,Me/Death",MentalHealth.DeathlifewordBIAT,9,pimh_deathlifeword2biat,15,Their,(unnamed)/Life,649,0,2615989949
272,1,BLOCK1,20,"(unnamed)/Life,Me/Death",MentalHealth.DeathlifewordBIAT,9,pimh_deathlifeword2biat,16,Dead,Me/Death,1244,1,2615989949
273,1,BLOCK1,20,"(unnamed)/Life,Me/Death",MentalHealth.DeathlifewordBIAT,9,pimh_deathlifeword2biat,17,Mine,Me/Death,970,0,2615989949
274,1,BLOCK1,20,"(unnamed)/Life,Me/Death",MentalHealth.DeathlifewordBIAT,9,pimh_deathlifeword2biat,18,Thrive,(unnamed)/Life,1128,1,2615989949
275,1,BLOCK1,20,"(unnamed)/Life,Me/Death",MentalHealth.DeathlifewordBIAT,9,pimh_deathlifeword2biat,19,Them,(unnamed)/Life,815,0,2615989949
204,2,BLOCK2,20,"(unnamed)/Death,Me/Life",MentalHealth.DeathlifewordBIAT,9,pimh_deathlifeword2biat,0,Living,Me/Life,1168,0,2615989949
205,2,BLOCK2,20,"(unnamed)/Death,Me/Life",MentalHealth.DeathlifewordBIAT,9,pimh_deathlifeword2biat,1,Thrive,Me/Life,1494,1,2615989949
206,2,BLOCK2,20,"(unnamed)/Death,Me/Life",MentalHealth.DeathlifewordBIAT,9,pimh_deathlifeword2biat,2,Dead,(unnamed)/Death,498,1,2615989949
207,2,BLOCK2,20,"(unnamed)/Death,Me/Life",MentalHealth.DeathlifewordBIAT,9,pimh_deathlifeword2biat,3,Suicide,(unnamed)/Death,622,0,2615989949
208,2,BLOCK2,20,"(unnamed)/Death,Me/Life",MentalHealth.DeathlifewordBIAT,9,pimh_deathlifeword2biat,4,Breathing,Me/Life,1517,0,2615989949
209,2,BLOCK2,20,"(unnamed)/Death,Me/Life",MentalHealth.DeathlifewordBIAT,9,pimh_deathlifeword2biat,5,They,(unnamed)/Death,626,0,2615989949
210,2,BLOCK2,20,"(unnamed)/Death,Me/Life",MentalHealth.DeathlifewordBIAT,9,pimh_deathlifeword2biat,6,Thrive,Me/Life,608,1,2615989949
211,2,BLOCK2,20,"(unnamed)/Death,Me/Life",MentalHealth.DeathlifewordBIAT,9,pimh_deathlifeword2biat,7,Self,Me/Life,2345,0,2615989949
212,2,BLOCK2,20,"(unnamed)/Death,Me/Life",MentalHealth.DeathlifewordBIAT,9,pimh_deathlifeword2biat,8,Suicide,(unnamed)/Death,690,0,2615989949
213,2,BLOCK2,20,"(unnamed)/Death,Me/Life",MentalHealth.DeathlifewordBIAT,9,pimh_deathlifeword2biat,9,Other,(unnamed)/Death,469,0,2615989949
214,2,BLOCK2,20,"(unnamed)/Death,Me/Life",MentalHealth.DeathlifewordBIAT,9,pimh_deathlifeword2biat,10,Dead,(unnamed)/Death,707,0,2615989949
215,2,BLOCK2,20,"(unnamed)/Death,Me/Life",MentalHealth.DeathlifewordBIAT,9,pimh_deathlifeword2biat,11,I,Me/Life,709,0,2615989949
240,2,BLOCK2,20,"(unnamed)/Death,Me/Life",MentalHealth.DeathlifewordBIAT,9,pimh_deathlifeword2biat,12,Deceased,(unnamed)/Death,880,0,2615989949
241,2,BLOCK2,20,"(unnamed)/Death,Me/Life",MentalHealth.DeathlifewordBIAT,9,pimh_deathlifeword2biat,13,Them,(unnamed)/Death,1584,0,2615989949
242,2,BLOCK2,20,"(unnamed)/Death,Me/Life",MentalHealth.DeathlifewordBIAT,9,pimh_deathlifeword2biat,14,Living,Me/Life,647,0,2615989949
243,2,BLOCK2,20,"(unnamed)/Death,Me/Life",MentalHealth.DeathlifewordBIAT,9,pimh_deathlifeword2biat,15,Their,(unnamed)/Death,708,0,2615989949
244,2,BLOCK2,20,"(unnamed)/Death,Me/Life",MentalHealth.DeathlifewordBIAT,9,pimh_deathlifeword2biat,16,Die,(unnamed)/Death,2093,0,2615989949
245,2,BLOCK2,20,"(unnamed)/Death,Me/Life",MentalHealth.DeathlifewordBIAT,9,pimh_deathlifeword2biat,17,Mine,Me/Life,654,0,2615989949
246,2,BLOCK2,20,"(unnamed)/Death,Me/Life",MentalHealth.DeathlifewordBIAT,9,pimh_deathlifeword2biat,18,Alive,Me/Life,818,0,2615989949
247,2,BLOCK2,20,"(unnamed)/Death,Me/Life",MentalHealth.DeathlifewordBIAT,9,pimh_deathlifeword2biat,19,Myself,Me/Life,781,0,2615989949
276,3,BLOCK3,20,"(unnamed)/Life,Me/Death",MentalHealth.DeathlifewordBIAT,9,pimh_deathlifeword2biat,0,Thrive,(unnamed)/Life,712,1,2615989949
277,3,BLOCK3,20,"(unnamed)/Life,Me/Death",MentalHealth.DeathlifewordBIAT,9,pimh_deathlifeword2biat,1,Living,(unnamed)/Life,526,1,2615989949
278,3,BLOCK3,20,"(unnamed)/Life,Me/Death",MentalHealth.DeathlifewordBIAT,9,pimh_deathlifeword2biat,2,Dead,Me/Death,892,0,2615989949
279,3,BLOCK3,20,"(unnamed)/Life,Me/Death",MentalHealth.DeathlifewordBIAT,9,pimh_deathlifeword2biat,3,Suicide,Me/Death,967,0,2615989949
160,3,BLOCK3,20,"(unnamed)/Life,Me/Death",MentalHealth.DeathlifewordBIAT,9,pimh_deathlifeword2biat,4,Dead,Me/Death,832,0,2615989949
161,3,BLOCK3,20,"(unnamed)/Life,Me/Death",MentalHealth.DeathlifewordBIAT,9,pimh_deathlifeword2biat,5,I,Me/Death,783,1,2615989949
162,3,BLOCK3,20,"(unnamed)/Life,Me/Death",MentalHealth.DeathlifewordBIAT,9,pimh_deathlifeword2biat,6,Alive,(unnamed)/Life,723,1,2615989949
163,3,BLOCK3,20,"(unnamed)/Life,Me/Death",MentalHealth.DeathlifewordBIAT,9,pimh_deathlifeword2biat,7,Self,Me/Death,539,0,2615989949
164,3,BLOCK3,20,"(unnamed)/Life,Me/Death",MentalHealth.DeathlifewordBIAT,9,pimh_deathlifeword2biat,8,Deceased,Me/Death,4346,1,2615989949
165,3,BLOCK3,20,"(unnamed)/Life,Me/Death",MentalHealth.DeathlifewordBIAT,9,pimh_deathlifeword2biat,9,Other,(unnamed)/Life,528,0,2615989949
166,3,BLOCK3,20,"(unnamed)/Life,Me/Death",MentalHealth.DeathlifewordBIAT,9,pimh_deathlifeword2biat,10,Living,(unnamed)/Life,4888,0,2615989949
167,3,BLOCK3,20,"(unnamed)/Life,Me/Death",MentalHealth.DeathlifewordBIAT,9,pimh_deathlifeword2biat,11,They,(unnamed)/Life,700,0,2615989949
168,3,BLOCK3,20,"(unnamed)/Life,Me/Death",MentalHealth.DeathlifewordBIAT,9,pimh_deathlifeword2biat,12,Suicide,Me/Death,560,1,2615989949
169,3,BLOCK3,20,"(unnamed)/Life,Me/Death",MentalHealth.DeathlifewordBIAT,9,pimh_deathlifeword2biat,13,Myself,Me/Death,401,0,2615989949
170,3,BLOCK3,20,"(unnamed)/Life,Me/Death",MentalHealth.DeathlifewordBIAT,9,pimh_deathlifeword2biat,14,Breathing,(unnamed)/Life,492,1,2615989949
171,3,BLOCK3,20,"(unnamed)/Life,Me/Death",MentalHealth.DeathlifewordBIAT,9,pimh_deathlifeword2biat,15,Mine,Me/Death,1325,0,2615989949
172,3,BLOCK3,20,"(unnamed)/Life,Me/Death",MentalHealth.DeathlifewordBIAT,9,pimh_deathlifeword2biat,16,Die,Me/Death,771,1,2615989949
173,3,BLOCK3,20,"(unnamed)/Life,Me/Death",MentalHealth.DeathlifewordBIAT,9,pimh_deathlifeword2biat,17,Their,(unnamed)/Life,942,0,2615989949
174,3,BLOCK3,20,"(unnamed)/Life,Me/Death",MentalHealth.DeathlifewordBIAT,9,pimh_deathlifeword2biat,18,Thrive,(unnamed)/Life,1953,1,2615989949
175,3,BLOCK3,20,"(unnamed)/Life,Me/Death",MentalHealth.DeathlifewordBIAT,9,pimh_deathlifeword2biat,19,Them,(unnamed)/Life,583,0,2615989949
265,4,BLOCK4,20,"(unnamed)/Death,Me/Life",MentalHealth.DeathlifewordBIAT,9,pimh_deathlifeword2biat,0,Die,(unnamed)/Death,561,1,2615989949
266,4,BLOCK4,20,"(unnamed)/Death,Me/Life",MentalHealth.DeathlifewordBIAT,9,pimh_deathlifeword2biat,1,Dead,(unnamed)/Death,746,0,2615989949
267,4,BLOCK4,20,"(unnamed)/Death,Me/Life",MentalHealth.DeathlifewordBIAT,9,pimh_deathlifeword2biat,2,Breathing,Me/Life,866,0,2615989949
264,4,BLOCK4,20,"(unnamed)/Death,Me/Life",MentalHealth.DeathlifewordBIAT,9,pimh_deathlifeword2biat,3,Living,Me/Life,203,0,2615989949
268,4,BLOCK4,20,"(unnamed)/Death,Me/Life",MentalHealth.DeathlifewordBIAT,9,pimh_deathlifeword2biat,4,Thrive,Me/Life,623,0,2615989949
269,4,BLOCK4,20,"(unnamed)/Death,Me/Life",MentalHealth.DeathlifewordBIAT,9,pimh_deathlifeword2biat,5,I,Me/Life,765,0,2615989949
270,4,BLOCK4,20,"(unnamed)/Death,Me/Life",MentalHealth.DeathlifewordBIAT,9,pimh_deathlifeword2biat,6,Die,(unnamed)/Death,623,0,2615989949
271,4,BLOCK4,20,"(unnamed)/Death,Me/Life",MentalHealth.DeathlifewordBIAT,9,pimh_deathlifeword2biat,7,Myself,Me/Life,1963,0,2615989949
216,4,BLOCK4,20,"(unnamed)/Death,Me/Life",MentalHealth.DeathlifewordBIAT,9,pimh_deathlifeword2biat,8,Deceased,(unnamed)/Death,4634,0,2615989949
217,4,BLOCK4,20,"(unnamed)/Death,Me/Life",MentalHealth.DeathlifewordBIAT,9,pimh_deathlifeword2biat,9,They,(unnamed)/Death,760,0,2615989949
218,4,BLOCK4,20,"(unnamed)/Death,Me/Life",MentalHealth.DeathlifewordBIAT,9,pimh_deathlifeword2biat,10,Alive,Me/Life,568,0,2615989949
219,4,BLOCK4,20,"(unnamed)/Death,Me/Life",MentalHealth.DeathlifewordBIAT,9,pimh_deathlifeword2biat,11,Other,(unnamed)/Death,813,0,2615989949
220,4,BLOCK4,20,"(unnamed)/Death,Me/Life",MentalHealth.DeathlifewordBIAT,9,pimh_deathlifeword2biat,12,Dead,(unnamed)/Death,505,1,2615989949
221,4,BLOCK4,20,"(unnamed)/Death,Me/Life",MentalHealth.DeathlifewordBIAT,9,pimh_deathlifeword2biat,13,Mine,Me/Life,460,0,2615989949
222,4,BLOCK4,20,"(unnamed)/Death,Me/Life",MentalHealth.DeathlifewordBIAT,9,pimh_deathlifeword2biat,14,Living,Me/Life,1031,0,2615989949
223,4,BLOCK4,20,"(unnamed)/Death,Me/Life",MentalHealth.DeathlifewordBIAT,9,pimh_deathlifeword2biat,15,Self,Me/Life,1222,0,2615989949
224,4,BLOCK4,20,"(unnamed)/Death,Me/Life",MentalHealth.DeathlifewordBIAT,9,pimh_deathlifeword2biat,16,Breathing,Me/Life,874,0,2615989949
225,4,BLOCK4,20,"(unnamed)/Death,Me/Life",MentalHealth.DeathlifewordBIAT,9,pimh_deathlifeword2biat,17,Them,(unnamed)/Death,717,0,2615989949
226,4,BLOCK4,20,"(unnamed)/Death,Me/Life",MentalHealth.DeathlifewordBIAT,9,pimh_deathlifeword2biat,18,Suicide,(unnamed)/Death,1003,0,2615989949
227,4,BLOCK4,20,"(unnamed)/Death,Me/Life",MentalHealth.DeathlifewordBIAT,9,pimh_deathlifeword2biat,19,Their,(unnamed)/Death,822,0,2615989949
228,5,BLOCK5,20,"(unnamed)/Life,Me/Death",MentalHealth.DeathlifewordBIAT,9,pimh_deathlifeword2biat,0,Deceased,Me/Death,1078,0,2615989949
229,5,BLOCK5,20,"(unnamed)/Life,Me/Death",MentalHealth.DeathlifewordBIAT,9,pimh_deathlifeword2biat,1,Dead,Me/Death,858,0,2615989949
230,5,BLOCK5,20,"(unnamed)/Life,Me/Death",MentalHealth.DeathlifewordBIAT,9,pimh_deathlifeword2biat,2,Breathing,(unnamed)/Life,608,0,2615989949
231,5,BLOCK5,20,"(unnamed)/Life,Me/Death",MentalHealth.DeathlifewordBIAT,9,pimh_deathlifeword2biat,3,Living,(unnamed)/Life,641,0,2615989949
232,5,BLOCK5,20,"(unnamed)/Life,Me/Death",MentalHealth.DeathlifewordBIAT,9,pimh_deathlifeword2biat,4,Deceased,Me/Death,609,0,2615989949
233,5,BLOCK5,20,"(unnamed)/Life,Me/Death",MentalHealth.DeathlifewordBIAT,9,pimh_deathlifeword2biat,5,They,(unnamed)/Life,690,1,2615989949
234,5,BLOCK5,20,"(unnamed)/Life,Me/Death",MentalHealth.DeathlifewordBIAT,9,pimh_deathlifeword2biat,6,Thrive,(unnamed)/Life,424,1,2615989949
235,5,BLOCK5,20,"(unnamed)/Life,Me/Death",MentalHealth.DeathlifewordBIAT,9,pimh_deathlifeword2biat,7,Mine,Me/Death,495,0,2615989949
236,5,BLOCK5,20,"(unnamed)/Life,Me/Death",MentalHealth.DeathlifewordBIAT,9,pimh_deathlifeword2biat,8,Living,(unnamed)/Life,1299,0,2615989949
237,5,BLOCK5,20,"(unnamed)/Life,Me/Death",MentalHealth.DeathlifewordBIAT,9,pimh_deathlifeword2biat,9,Their,(unnamed)/Life,613,0,2615989949
238,5,BLOCK5,20,"(unnamed)/Life,Me/Death",MentalHealth.DeathlifewordBIAT,9,pimh_deathlifeword2biat,10,Dead,Me/Death,696,0,2615989949
239,5,BLOCK5,20,"(unnamed)/Life,Me/Death",MentalHealth.DeathlifewordBIAT,9,pimh_deathlifeword2biat,11,Self,Me/Death,517,0,2615989949
176,5,BLOCK5,20,"(unnamed)/Life,Me/Death",MentalHealth.DeathlifewordBIAT,9,pimh_deathlifeword2biat,12,Alive,(unnamed)/Life,1142,0,2615989949
177,5,BLOCK5,20,"(unnamed)/Life,Me/Death",MentalHealth.DeathlifewordBIAT,9,pimh_deathlifeword2biat,13,I,Me/Death,668,0,2615989949
178,5,BLOCK5,20,"(unnamed)/Life,Me/Death",MentalHealth.DeathlifewordBIAT,9,pimh_deathlifeword2biat,14,Die,Me/Death,734,0,2615989949
179,5,BLOCK5,20,"(unnamed)/Life,Me/Death",MentalHealth.DeathlifewordBIAT,9,pimh_deathlifeword2biat,15,Them,(unnamed)/Life,1853,0,2615989949
180,5,BLOCK5,20,"(unnamed)/Life,Me/Death",MentalHealth.DeathlifewordBIAT,9,pimh_deathlifeword2biat,16,Breathing,(unnamed)/Life,544,0,2615989949
181,5,BLOCK5,20,"(unnamed)/Life,Me/Death",MentalHealth.DeathlifewordBIAT,9,pimh_deathlifeword2biat,17,Other,(unnamed)/Life,624,0,2615989949
182,5,BLOCK5,20,"(unnamed)/Life,Me/Death",MentalHealth.DeathlifewordBIAT,9,pimh_deathlifeword2biat,18,Suicide,Me/Death,841,0,2615989949
183,5,BLOCK5,20,"(unnamed)/Life,Me/Death",MentalHealth.DeathlifewordBIAT,9,pimh_deathlifeword2biat,19,Myself,Me/Death,1137,0,2615989949
361,0,BLOCK0,20,"(unnamed)/Life,Me/Death",MentalHealth.DeathlifewordBIAT,9,pimh_deathlifeword1biat,0,Breathing,(unnamed)/Life,598,0,2615990766
362,0,BLOCK0,20,"(unnamed)/Life,Me/Death",MentalHealth.DeathlifewordBIAT,9,pimh_deathlifeword1biat,1,Dead,Me/Death,1815,1,2615990766
363,0,BLOCK0,20,"(unnamed)/Life,Me/Death",MentalHealth.DeathlifewordBIAT,9,pimh_deathlifeword1biat,2,Die,Me/Death,1609,0,2615990766
360,0,BLOCK0,20,"(unnamed)/Life,Me/Death",MentalHealth.DeathlifewordBIAT,9,pimh_deathlifeword1biat,3,Alive,(unnamed)/Life,542,1,2615990766
364,0,BLOCK0,20,"(unnamed)/Life,Me/Death",MentalHealth.DeathlifewordBIAT,9,pimh_deathlifeword1biat,4,Deceased,Me/Death,612,0,2615990766
365,0,BLOCK0,20,"(unnamed)/Life,Me/Death",MentalHealth.DeathlifewordBIAT,9,pimh_deathlifeword1biat,5,Myself,Me/Death,657,1,2615990766
366,0,BLOCK0,20,"(unnamed)/Life,Me/Death",MentalHealth.DeathlifewordBIAT,9,pimh_deathlifeword1biat,6,Die,Me/Death,600,0,2615990766
367,0,BLOCK0,20,"(unnamed)/Life,Me/Death",MentalHealth.DeathlifewordBIAT,9,pimh_deathlifeword1biat,7,Them,(unnamed)/Life,612,1,2615990766
368,0,BLOCK0,20,"(unnamed)/Life,Me/Death",MentalHealth.DeathlifewordBIAT,9,pimh_deathlifeword1biat,8,Thrive,(unnamed)/Life,630,0,2615990766
369,0,BLOCK0,20,"(unnamed)/Life,Me/Death",MentalHealth.DeathlifewordBIAT,9,pimh_deathlifeword1biat,9,Self,Me/Death,698,0,2615990766
370,0,BLOCK0,20,"(unnamed)/Life,Me/Death",MentalHealth.DeathlifewordBIAT,9,pimh_deathlifeword1biat,10,Alive,(unnamed)/Life,835,0,2615990766
371,0,BLOCK0,20,"(unnamed)/Life,Me/Death",MentalHealth.DeathlifewordBIAT,9,pimh_deathlifeword1biat,11,Their,(unnamed)/Life,849,1,2615990766
372,0,BLOCK0,20,"(unnamed)/Life,Me/Death",MentalHealth.DeathlifewordBIAT,9,pimh_deathlifeword1biat,12,Suicide,Me/Death,2164,0,2615990766
374,0,BLOCK0,20,"(unnamed)/Life,Me/Death",MentalHealth.DeathlifewordBIAT,9,pimh_deathlifeword1biat,13,They,(unnamed)/Life,716,0,2615990766
375,0,BLOCK0,20,"(unnamed)/Life,Me/Death",MentalHealth.DeathlifewordBIAT,9,pimh_deathlifeword1biat,14,Dead,Me/Death,2390,0,2615990766
376,0,BLOCK0,20,"(unnamed)/Life,Me/Death",MentalHealth.DeathlifewordBIAT,9,pimh_deathlifeword1biat,15,I,Me/Death,811,1,2615990766
373,0,BLOCK0,20,"(unnamed)/Life,Me/Death",MentalHealth.DeathlifewordBIAT,9,pimh_deathlifeword1biat,16,Breathing,(unnamed)/Life,537,1,2615990766
377,0,BLOCK0,20,"(unnamed)/Life,Me/Death",MentalHealth.DeathlifewordBIAT,9,pimh_deathlifeword1biat,17,Mine,Me/Death,1166,1,2615990766
378,0,BLOCK0,20,"(unnamed)/Life,Me/Death",MentalHealth.DeathlifewordBIAT,9,pimh_deathlifeword1biat,18,Living,(unnamed)/Life,923,1,2615990766
379,0,BLOCK0,20,"(unnamed)/Life,Me/Death",MentalHealth.DeathlifewordBIAT,9,pimh_deathlifeword1biat,19,Other,(unnamed)/Life,907,1,2615990766
316,1,BLOCK1,20,"(unnamed)/Death,Me/Life",MentalHealth.DeathlifewordBIAT,9,pimh_deathlifeword1biat,0,Dead,(unnamed)/Death,916,0,2615990766
317,1,BLOCK1,20,"(unnamed)/Death,Me/Life",MentalHealth.DeathlifewordBIAT,9,pimh_deathlifeword1biat,1,Alive,Me/Life,730,0,2615990766
319,1,BLOCK1,20,"(unnamed)/Death,Me/Life",MentalHealth.DeathlifewordBIAT,9,pimh_deathlifeword1biat,2,Suicide,(unnamed)/Death,844,1,2615990766
320,1,BLOCK1,20,"(unnamed)/Death,Me/Life",MentalHealth.DeathlifewordBIAT,9,pimh_deathlifeword1biat,3,Thrive,Me/Life,917,1,2615990766
321,1,BLOCK1,20,"(unnamed)/Death,Me/Life",MentalHealth.DeathlifewordBIAT,9,pimh_deathlifeword1biat,4,Suicide,(unnamed)/Death,1856,1,2615990766
318,1,BLOCK1,20,"(unnamed)/Death,Me/Life",MentalHealth.DeathlifewordBIAT,9,pimh_deathlifeword1biat,5,They,(unnamed)/Death,2511,1,2615990766
322,1,BLOCK1,20,"(unnamed)/Death,Me/Life",MentalHealth.DeathlifewordBIAT,9,pimh_deathlifeword1biat,6,Deceased,(unnamed)/Death,1026,0,2615990766
323,1,BLOCK1,20,"(unnamed)/Death,Me/Life",MentalHealth.DeathlifewordBIAT,9,pimh_deathlifeword1biat,7,Mine,Me/Life,716,0,2615990766
324,1,BLOCK1,20,"(unnamed)/Death,Me/Life",MentalHealth.DeathlifewordBIAT,9,pimh_deathlifeword1biat,8,Alive,Me/Life,781,1,2615990766
325,1,BLOCK1,20,"(unnamed)/Death,Me/Life",MentalHealth.DeathlifewordBIAT,9,pimh_deathlifeword1biat,9,Self,Me/Life,840,0,2615990766
326,1,BLOCK1,20,"(unnamed)/Death,Me/Life",MentalHealth.DeathlifewordBIAT,9,pimh_deathlifeword1biat,10,Living,Me/Life,1080,0,2615990766
327,1,BLOCK1,20,"(unnamed)/Death,Me/Life",MentalHealth.DeathlifewordBIAT,9,pimh_deathlifeword1biat,11,Their,(unnamed)/Death,689,1,2615990766
328,1,BLOCK1,20,"(unnamed)/Death,Me/Life",MentalHealth.DeathlifewordBIAT,9,pimh_deathlifeword1biat,12,Breathing,Me/Life,1061,0,2615990766
329,1,BLOCK1,20,"(unnamed)/Death,Me/Life",MentalHealth.DeathlifewordBIAT,9,pimh_deathlifeword1biat,13,Them,(unnamed)/Death,2620,0,2615990766
330,1,BLOCK1,20,"(unnamed)/Death,Me/Life",MentalHealth.DeathlifewordBIAT,9,pimh_deathlifeword1biat,14,Dead,(unnamed)/Death,1073,0,2615990766
331,1,BLOCK1,20,"(unnamed)/Death,Me/Life",MentalHealth.DeathlifewordBIAT,9,pimh_deathlifeword1biat,15,I,Me/Life,1249,0,2615990766
332,1,BLOCK1,20,"(unnamed)/Death,Me/Life",MentalHealth.DeathlifewordBIAT,9,pimh_deathlifeword1biat,16,Die,(unnamed)/Death,439,0,2615990766
333,1,BLOCK1,20,"(unnamed)/Death,Me/Life",MentalHealth.DeathlifewordBIAT,9,pimh_deathlifeword1biat,17,Other,(unnamed)/Death,753,1,2615990766
334,1,BLOCK1,20,"(unnamed)/Death,Me/Life",MentalHealth.DeathlifewordBIAT,9,pimh_deathlifeword1biat,18,Thrive,Me/Life,669,0,2615990766
335,1,BLOCK1,20,"(unnamed)/Death,Me/Life",MentalHealth.DeathlifewordBIAT,9,pimh_deathlifeword1biat,19,Myself,Me/Life,514,0,2615990766
399,2,BLOCK2,20,"(unnamed)/Life,Me/Death",MentalHealth.DeathlifewordBIAT,9,pimh_deathlifeword1biat,0,Living,(unnamed)/Life,6806,1,2615990766
380,2,BLOCK2,20,"(unnamed)/Life,Me/Death",MentalHealth.DeathlifewordBIAT,9,pimh_deathlifeword1biat,1,Breathing,(unnamed)/Life,947,1,2615990766
381,2,BLOCK2,20,"(unnamed)/Life,Me/Death",MentalHealth.DeathlifewordBIAT,9,pimh_deathlifeword1biat,2,Dead,Me/Death,761,0,2615990766
382,2,BLOCK2,20,"(unnamed)/Life,Me/Death",MentalHealth.DeathlifewordBIAT,9,pimh_deathlifeword1biat,3,Suicide,Me/Death,524,0,2615990766
383,2,BLOCK2,20,"(unnamed)/Life,Me/Death",MentalHealth.DeathlifewordBIAT,9,pimh_deathlifeword1biat,4,Dead,Me/Death,1387,0,2615990766
384,2,BLOCK2,20,"(unnamed)/Life,Me/Death",MentalHealth.DeathlifewordBIAT,9,pimh_deathlifeword1biat,5,I,Me/Death,633,1,2615990766
385,2,BLOCK2,20,"(unnamed)/Life,Me/Death",MentalHealth.DeathlifewordBIAT,9,pimh_deathlifeword1biat,6,Living,(unnamed)/Life,693,1,2615990766
386,2,BLOCK2,20,"(unnamed)/Life,Me/Death",MentalHealth.DeathlifewordBIAT,9,pimh_deathlifeword1biat,7,Other,(unnamed)/Life,953,1,2615990766
387,2,BLOCK2,20,"(unnamed)/Life,Me/Death",MentalHealth.DeathlifewordBIAT,9,pimh_deathlifeword1biat,8,Breathing,(unnamed)/Life,1103,0,2615990766
388,2,BLOCK2,20,"(unnamed)/Life,Me/Death",MentalHealth.DeathlifewordBIAT,9,pimh_deathlifeword1biat,9,Self,Me/Death,794,1,2615990766
389,2,BLOCK2,20,"(unnamed)/Life,Me/Death",MentalHealth.DeathlifewordBIAT,9,pimh_deathlifeword1biat,10,Die,Me/Death,592,1,2615990766
390,2,BLOCK2,20,"(unnamed)/Life,Me/Death",MentalHealth.DeathlifewordBIAT,9,pimh_deathlifeword1biat,11,Them,(unnamed)/Life,2040,1,2615990766
391,2,BLOCK2,20,"(unnamed)/Life,Me/Death",MentalHealth.DeathlifewordBIAT,9,pimh_deathlifeword1biat,12,Suicide,Me/Death,898,0,2615990766
392,2,BLOCK2,20,"(unnamed)/Life,Me/Death",MentalHealth.DeathlifewordBIAT,9,pimh_deathlifeword1biat,13,Their,(unnamed)/Life,586,1,2615990766
393,2,BLOCK2,20,"(unnamed)/Life,Me/Death",MentalHealth.DeathlifewordBIAT,9,pimh_deathlifeword1biat,14,Alive,(unnamed)/Life,748,0,2615990766
394,2,BLOCK2,20,"(unnamed)/Life,Me/Death",MentalHealth.DeathlifewordBIAT,9,pimh_deathlifeword1biat,15,Myself,Me/Death,794,1,2615990766
395,2,BLOCK2,20,"(unnamed)/Life,Me/Death",MentalHealth.DeathlifewordBIAT,9,pimh_deathlifeword1biat,16,Deceased,Me/Death,1184,0,2615990766
396,2,BLOCK2,20,"(unnamed)/Life,Me/Death",MentalHealth.DeathlifewordBIAT,9,pimh_deathlifeword1biat,17,Mine,Me/Death,648,1,2615990766
397,2,BLOCK2,20,"(unnamed)/Life,Me/Death",MentalHealth.DeathlifewordBIAT,9,pimh_deathlifeword1biat,18,Thrive,(unnamed)/Life,841,1,2615990766
398,2,BLOCK2,20,"(unnamed)/Life,Me/Death",MentalHealth.DeathlifewordBIAT,9,pimh_deathlifeword1biat,19,They,(unnamed)/Life,2184,1,2615990766
296,3,BLOCK3,20,"(unnamed)/Death,Me/Life",MentalHealth.DeathlifewordBIAT,9,pimh_deathlifeword1biat,0,Alive,Me/Life,876,0,2615990766
297,3,BLOCK3,20,"(unnamed)/Death,Me/Life",MentalHealth.DeathlifewordBIAT,9,pimh_deathlifeword1biat,1,Living,Me/Life,1291,0,2615990766
298,3,BLOCK3,20,"(unnamed)/Death,Me/Life",MentalHealth.DeathlifewordBIAT,9,pimh_deathlifeword1biat,2,Dead,(unnamed)/Death,837,0,2615990766
299,3,BLOCK3,20,"(unnamed)/Death,Me/Life",MentalHealth.DeathlifewordBIAT,9,pimh_deathlifeword1biat,3,Suicide,(unnamed)/Death,964,0,2615990766
300,3,BLOCK3,20,"(unnamed)/Death,Me/Life",MentalHealth.DeathlifewordBIAT,9,pimh_deathlifeword1biat,4,Deceased,(unnamed)/Death,918,0,2615990766
301,3,BLOCK3,20,"(unnamed)/Death,Me/Life",MentalHealth.DeathlifewordBIAT,9,pimh_deathlifeword1biat,5,Myself,Me/Life,575,0,2615990766
302,3,BLOCK3,20,"(unnamed)/Death,Me/Life",MentalHealth.DeathlifewordBIAT,9,pimh_deathlifeword1biat,6,Die,(unnamed)/Death,1711,0,2615990766
303,3,BLOCK3,20,"(unnamed)/Death,Me/Life",MentalHealth.DeathlifewordBIAT,9,pimh_deathlifeword1biat,7,Their,(unnamed)/Death,758,1,2615990766
304,3,BLOCK3,20,"(unnamed)/Death,Me/Life",MentalHealth.DeathlifewordBIAT,9,pimh_deathlifeword1biat,8,Breathing,Me/Life,700,0,2615990766
305,3,BLOCK3,20,"(unnamed)/Death,Me/Life",MentalHealth.DeathlifewordBIAT,9,pimh_deathlifeword1biat,9,They,(unnamed)/Death,565,0,2615990766
306,3,BLOCK3,20,"(unnamed)/Death,Me/Life",MentalHealth.DeathlifewordBIAT,9,pimh_deathlifeword1biat,10,Living,Me/Life,1185,0,2615990766
307,3,BLOCK3,20,"(unnamed)/Death,Me/Life",MentalHealth.DeathlifewordBIAT,9,pimh_deathlifeword1biat,11,Self,Me/Life,759,0,2615990766
308,3,BLOCK3,20,"(unnamed)/Death,Me/Life",MentalHealth.DeathlifewordBIAT,9,pimh_deathlifeword1biat,12,Alive,Me/Life,654,0,2615990766
309,3,BLOCK3,20,"(unnamed)/Death,Me/Life",MentalHealth.DeathlifewordBIAT,9,pimh_deathlifeword1biat,13,Them,(unnamed)/Death,694,0,2615990766
310,3,BLOCK3,20,"(unnamed)/Death,Me/Life",MentalHealth.DeathlifewordBIAT,9,pimh_deathlifeword1biat,14,Suicide,(unnamed)/Death,857,1,2615990766
311,3,BLOCK3,20,"(unnamed)/Death,Me/Life",MentalHealth.DeathlifewordBIAT,9,pimh_deathlifeword1biat,15,Mine,Me/Life,757,0,2615990766
312,3,BLOCK3,20,"(unnamed)/Death,Me/Life",MentalHealth.DeathlifewordBIAT,9,pimh_deathlifeword1biat,16,Thrive,Me/Life,855,0,2615990766
313,3,BLOCK3,20,"(unnamed)/Death,Me/Life",MentalHealth.DeathlifewordBIAT,9,pimh_deathlifeword1biat,17,I,Me/Life,400,0,2615990766
314,3,BLOCK3,20,"(unnamed)/Death,Me/Life",MentalHealth.DeathlifewordBIAT,9,pimh_deathlifeword1biat,18,Dead,(unnamed)/Death,504,0,2615990766
315,3,BLOCK3,20,"(unnamed)/Death,Me/Life",MentalHealth.DeathlifewordBIAT,9,pimh_deathlifeword1biat,19,Other,(unnamed)/Death,1283,0,2615990766
336,4,BLOCK4,20,"(unnamed)/Life,Me/Death",MentalHealth.DeathlifewordBIAT,9,pimh_deathlifeword1biat,0,Dead,Me/Death,1008,1,2615990766
337,4,BLOCK4,20,"(unnamed)/Life,Me/Death",MentalHealth.DeathlifewordBIAT,9,pimh_deathlifeword1biat,1,Die,Me/Death,930,0,2615990766
338,4,BLOCK4,20,"(unnamed)/Life,Me/Death",MentalHealth.DeathlifewordBIAT,9,pimh_deathlifeword1biat,2,Living,(unnamed)/Life,722,1,2615990766
339,4,BLOCK4,20,"(unnamed)/Life,Me/Death",MentalHealth.DeathlifewordBIAT,9,pimh_deathlifeword1biat,3,Alive,(unnamed)/Life,590,0,2615990766
340,4,BLOCK4,20,"(unnamed)/Life,Me/Death",MentalHealth.DeathlifewordBIAT,9,pimh_deathlifeword1biat,4,Die,Me/Death,727,0,2615990766
341,4,BLOCK4,20,"(unnamed)/Life,Me/Death",MentalHealth.DeathlifewordBIAT,9,pimh_deathlifeword1biat,5,They,(unnamed)/Life,900,0,2615990766
342,4,BLOCK4,20,"(unnamed)/Life,Me/Death",MentalHealth.DeathlifewordBIAT,9,pimh_deathlifeword1biat,6,Breathing,(unnamed)/Life,656,1,2615990766
343,4,BLOCK4,20,"(unnamed)/Life,Me/Death",MentalHealth.DeathlifewordBIAT,9,pimh_deathlifeword1biat,7,Them,(unnamed)/Life,781,0,2615990766
344,4,BLOCK4,20,"(unnamed)/Life,Me/Death",MentalHealth.DeathlifewordBIAT,9,pimh_deathlifeword1biat,8,Living,(unnamed)/Life,1524,0,2615990766
345,4,BLOCK4,20,"(unnamed)/Life,Me/Death",MentalHealth.DeathlifewordBIAT,9,pimh_deathlifeword1biat,9,Myself,Me/Death,517,0,2615990766
346,4,BLOCK4,20,"(unnamed)/Life,Me/Death",MentalHealth.DeathlifewordBIAT,9,pimh_deathlifeword1biat,10,Deceased,Me/Death,460,0,2615990766
347,4,BLOCK4,20,"(unnamed)/Life,Me/Death",MentalHealth.DeathlifewordBIAT,9,pimh_deathlifeword1biat,11,I,Me/Death,511,0,2615990766
348,4,BLOCK4,20,"(unnamed)/Life,Me/Death",MentalHealth.DeathlifewordBIAT,9,pimh_deathlifeword1biat,12,Suicide,Me/Death,541,0,2615990766
349,4,BLOCK4,20,"(unnamed)/Life,Me/Death",MentalHealth.DeathlifewordBIAT,9,pimh_deathlifeword1biat,13,Other,(unnamed)/Life,1046,0,2615990766
350,4,BLOCK4,20,"(unnamed)/Life,Me/Death",MentalHealth.DeathlifewordBIAT,9,pimh_deathlifeword1biat,14,Thrive,(unnamed)/Life,642,0,2615990766
351,4,BLOCK4,20,"(unnamed)/Life,Me/Death",MentalHealth.DeathlifewordBIAT,9,pimh_deathlifeword1biat,15,Their,(unnamed)/Life,1074,0,2615990766
352,4,BLOCK4,20,"(unnamed)/Life,Me/Death",MentalHealth.DeathlifewordBIAT,9,pimh_deathlifeword1biat,16,Dead,Me/Death,1245,0,2615990766
353,4,BLOCK4,20,"(unnamed)/Life,Me/Death",MentalHealth.DeathlifewordBIAT,9,pimh_deathlifeword1biat,17,Self,Me/Death,760,0,2615990766
354,4,BLOCK4,20,"(unnamed)/Life,Me/Death",MentalHealth.DeathlifewordBIAT,9,pimh_deathlifeword1biat,18,Alive,(unnamed)/Life,778,0,2615990766
355,4,BLOCK4,20,"(unnamed)/Life,Me/Death",MentalHealth.DeathlifewordBIAT,9,pimh_deathlifeword1biat,19,Mine,Me/Death,620,0,2615990766
356,5,BLOCK5,20,"(unnamed)/Death,Me/Life",MentalHealth.DeathlifewordBIAT,9,pimh_deathlifeword1biat,0,Suicide,(unnamed)/Death,670,0,2615990766
357,5,BLOCK5,20,"(unnamed)/Death,Me/Life",MentalHealth.DeathlifewordBIAT,9,pimh_deathlifeword1biat,1,Breathing,Me/Life,827,0,2615990766
358,5,BLOCK5,20,"(unnamed)/Death,Me/Life",MentalHealth.DeathlifewordBIAT,9,pimh_deathlifeword1biat,2,Alive,Me/Life,1030,0,2615990766
359,5,BLOCK5,20,"(unnamed)/Death,Me/Life",MentalHealth.DeathlifewordBIAT,9,pimh_deathlifeword1biat,3,Dead,(unnamed)/Death,1328,0,2615990766
280,5,BLOCK5,20,"(unnamed)/Death,Me/Life",MentalHealth.DeathlifewordBIAT,9,pimh_deathlifeword1biat,4,Deceased,(unnamed)/Death,636,0,2615990766
281,5,BLOCK5,20,"(unnamed)/Death,Me/Life",MentalHealth.DeathlifewordBIAT,9,pimh_deathlifeword1biat,5,Their,(unnamed)/Death,945,0,2615990766
282,5,BLOCK5,20,"(unnamed)/Death,Me/Life",MentalHealth.DeathlifewordBIAT,9,pimh_deathlifeword1biat,6,Living,Me/Life,1273,0,2615990766
283,5,BLOCK5,20,"(unnamed)/Death,Me/Life",MentalHealth.DeathlifewordBIAT,9,pimh_deathlifeword1biat,7,Them,(unnamed)/Death,544,0,2615990766
284,5,BLOCK5,20,"(unnamed)/Death,Me/Life",MentalHealth.DeathlifewordBIAT,9,pimh_deathlifeword1biat,8,Thrive,Me/Life,437,1,2615990766
285,5,BLOCK5,20,"(unnamed)/Death,Me/Life",MentalHealth.DeathlifewordBIAT,9,pimh_deathlifeword1biat,9,I,Me/Life,539,0,2615990766
286,5,BLOCK5,20,"(unnamed)/Death,Me/Life",MentalHealth.DeathlifewordBIAT,9,pimh_deathlifeword1biat,10,Die,(unnamed)/Death,760,0,2615990766
288,5,BLOCK5,20,"(unnamed)/Death,Me/Life",MentalHealth.DeathlifewordBIAT,9,pimh_deathlifeword1biat,11,Myself,Me/Life,536,0,2615990766
289,5,BLOCK5,20,"(unnamed)/Death,Me/Life",MentalHealth.DeathlifewordBIAT,9,pimh_deathlifeword1biat,12,Dead,(unnamed)/Death,2885,0,2615990766
290,5,BLOCK5,20,"(unnamed)/Death,Me/Life",MentalHealth.DeathlifewordBIAT,9,pimh_deathlifeword1biat,13,Other,(unnamed)/Death,671,0,2615990766
287,5,BLOCK5,20,"(unnamed)/Death,Me/Life",MentalHealth.DeathlifewordBIAT,9,pimh_deathlifeword1biat,14,Suicide,(unnamed)/Death,1278,1,2615990766
291,5,BLOCK5,20,"(unnamed)/Death,Me/Life",MentalHealth.DeathlifewordBIAT,9,pimh_deathlifeword1biat,15,Mine,Me/Life,1297,0,2615990766
292,5,BLOCK5,20,"(unnamed)/Death,Me/Life",MentalHealth.DeathlifewordBIAT,9,pimh_deathlifeword1biat,16,Breathing,Me/Life,825,0,2615990766
293,5,BLOCK5,20,"(unnamed)/Death,Me/Life",MentalHealth.DeathlifewordBIAT,9,pimh_deathlifeword1biat,17,They,(unnamed)/Death,831,0,2615990766
294,5,BLOCK5,20,"(unnamed)/Death,Me/Life",MentalHealth.DeathlifewordBIAT,9,pimh_deathlifeword1biat,18,Alive,Me/Life,1597,0,2615990766
295,5,BLOCK5,20,"(unnamed)/Death,Me/Life",MentalHealth.DeathlifewordBIAT,9,pimh_deathlifeword1biat,19,Self,Me/Life,1028,0,2615990766
489,0,BLOCK0,20,"(unnamed)/Life,Me/Death",MentalHealth.DeathlifewordBIAT,6,pimh_deathlifeword1biat,0,Living,(unnamed)/Life,525,1,2615998161
490,0,BLOCK0,20,"(unnamed)/Life,Me/Death",MentalHealth.DeathlifewordBIAT,6,pimh_deathlifeword1biat,1,Alive,(unnamed)/Life,502,1,2615998161
491,0,BLOCK0,20,"(unnamed)/Life,Me/Death",MentalHealth.DeathlifewordBIAT,6,pimh_deathlifeword1biat,2,Dead,Me/Death,593,0,2615998161
488,0,BLOCK0,20,"(unnamed)/Life,Me/Death",MentalHealth.DeathlifewordBIAT,6,pimh_deathlifeword1biat,3,Suicide,Me/Death,408,0,2615998161
492,0,BLOCK0,20,"(unnamed)/Life,Me/Death",MentalHealth.DeathlifewordBIAT,6,pimh_deathlifeword1biat,4,Breathing,(unnamed)/Life,831,1,2615998161
493,0,BLOCK0,20,"(unnamed)/Life,Me/Death",MentalHealth.DeathlifewordBIAT,6,pimh_deathlifeword1biat,5,Their,(unnamed)/Life,627,0,2615998161
494,0,BLOCK0,20,"(unnamed)/Life,Me/Death",MentalHealth.DeathlifewordBIAT,6,pimh_deathlifeword1biat,6,Thrive,(unnamed)/Life,1020,1,2615998161
495,0,BLOCK0,20,"(unnamed)/Life,Me/Death",MentalHealth.DeathlifewordBIAT,6,pimh_deathlifeword1biat,7,Myself,Me/Death,981,0,2615998161
496,0,BLOCK0,20,"(unnamed)/Life,Me/Death",MentalHealth.DeathlifewordBIAT,6,pimh_deathlifeword1biat,8,Deceased,Me/Death,1091,0,2615998161
497,0,BLOCK0,20,"(unnamed)/Life,Me/Death",MentalHealth.DeathlifewordBIAT,6,pimh_deathlifeword1biat,9,Self,Me/Death,571,0,2615998161
498,0,BLOCK0,20,"(unnamed)/Life,Me/Death",MentalHealth.DeathlifewordBIAT,6,pimh_deathlifeword1biat,10,Die,Me/Death,872,0,2615998161
499,0,BLOCK0,20,"(unnamed)/Life,Me/Death",MentalHealth.DeathlifewordBIAT,6,pimh_deathlifeword1biat,11,They,(unnamed)/Life,597,1,2615998161
400,0,BLOCK0,20,"(unnamed)/Life,Me/Death",MentalHealth.DeathlifewordBIAT,6,pimh_deathlifeword1biat,12,Dead,Me/Death,1407,0,2615998161
401,0,BLOCK0,20,"(unnamed)/Life,Me/Death",MentalHealth.DeathlifewordBIAT,6,pimh_deathlifeword1biat,13,Them,(unnamed)/Life,791,0,2615998161
402,0,BLOCK0,20,"(unnamed)/Life,Me/Death",MentalHealth.DeathlifewordBIAT,6,pimh_deathlifeword1biat,14,Suicide,Me/Death,861,0,2615998161
403,0,BLOCK0,20,"(unnamed)/Life,Me/Death",MentalHealth.DeathlifewordBIAT,6,pimh_deathlifeword1biat,15,Mine,Me/Death,576,0,2615998161
404,0,BLOCK0,20,"(unnamed)/Life,Me/Death",MentalHealth.DeathlifewordBIAT,6,pimh_deathlifeword1biat,16,Living,(unnamed)/Life,798,0,2615998161
405,0,BLOCK0,20,"(unnamed)/Life,Me/Death",MentalHealth.DeathlifewordBIAT,6,pimh_deathlifeword1biat,17,Other,(unnamed)/Life,518,0,2615998161
406,0,BLOCK0,20,"(unnamed)/Life,Me/Death",MentalHealth.DeathlifewordBIAT,6,pimh_deathlifeword1biat,18,Alive,(unnamed)/Life,685,0,2615998161
407,0,BLOCK0,20,"(unnamed)/Life,Me/Death",MentalHealth.DeathlifewordBIAT,6,pimh_deathlifeword1biat,19,I,Me/Death,1089,0,2615998161
468,1,BLOCK1,20,"(unnamed)/Death,Me/Life",MentalHealth.DeathlifewordBIAT,6,pimh_deathlifeword1biat,0,Alive,Me/Life,1623,0,2615998161
469,1,BLOCK1,20,"(unnamed)/Death,Me/Life",MentalHealth.DeathlifewordBIAT,6,pimh_deathlifeword1biat,1,Deceased,(unnamed)/Death,876,0,2615998161
470,1,BLOCK1,20,"(unnamed)/Death,Me/Life",MentalHealth.DeathlifewordBIAT,6,pimh_deathlifeword1biat,2,Die,(unnamed)/Death,512,0,2615998161
472,1,BLOCK1,20,"(unnamed)/Death,Me/Life",MentalHealth.DeathlifewordBIAT,6,pimh_deathlifeword1biat,3,Thrive,Me/Life,1104,0,2615998161
473,1,BLOCK1,20,"(unnamed)/Death,Me/Life",MentalHealth.DeathlifewordBIAT,6,pimh_deathlifeword1biat,4,Breathing,Me/Life,3876,0,2615998161
474,1,BLOCK1,20,"(unnamed)/Death,Me/Life",MentalHealth.DeathlifewordBIAT,6,pimh_deathlifeword1biat,5,They,(unnamed)/Death,3226,0,2615998161
471,1,BLOCK1,20,"(unnamed)/Death,Me/Life",MentalHealth.DeathlifewordBIAT,6,pimh_deathlifeword1biat,6,Die,(unnamed)/Death,595,0,2615998161
475,1,BLOCK1,20,"(unnamed)/Death,Me/Life",MentalHealth.DeathlifewordBIAT,6,pimh_deathlifeword1biat,7,I,Me/Life,1237,0,2615998161
476,1,BLOCK1,20,"(unnamed)/Death,Me/Life",MentalHealth.DeathlifewordBIAT,6,pimh_deathlifeword1biat,8,Suicide,(unnamed)/Death,1467,0,2615998161
477,1,BLOCK1,20,"(unnamed)/Death,Me/Life",MentalHealth.DeathlifewordBIAT,6,pimh_deathlifeword1biat,9,Them,(unnamed)/Death,710,0,2615998161
478,1,BLOCK1,20,"(unnamed)/Death,Me/Life",MentalHealth.DeathlifewordBIAT,6,pimh_deathlifeword1biat,10,Living,Me/Life,489,0,2615998161
479,1,BLOCK1,20,"(unnamed)/Death,Me/Life",MentalHealth.DeathlifewordBIAT,6,pimh_deathlifeword1biat,11,Myself,Me/Life,449,0,2615998161
480,1,BLOCK1,20,"(unnamed)/Death,Me/Life",MentalHealth.DeathlifewordBIAT,6,pimh_deathlifeword1biat,12,Thrive,Me/Life,754,0,2615998161
481,1,BLOCK1,20,"(unnamed)/Death,Me/Life",MentalHealth.DeathlifewordBIAT,6,pimh_deathlifeword1biat,13,Other,(unnamed)/Death,850,0,2615998161
482,1,BLOCK1,20,"(unnamed)/Death,Me/Life",MentalHealth.DeathlifewordBIAT,6,pimh_deathlifeword1biat,14,Dead,(unnamed)/Death,1530,0,2615998161
483,1,BLOCK1,20,"(unnamed)/Death,Me/Life",MentalHealth.DeathlifewordBIAT,6,pimh_deathlifeword1biat,15,Mine,Me/Life,1955,0,2615998161
484,1,BLOCK1,20,"(unnamed)/Death,Me/Life",MentalHealth.DeathlifewordBIAT,6,pimh_deathlifeword1biat,16,Deceased,(unnamed)/Death,589,0,2615998161
485,1,BLOCK1,20,"(unnamed)/Death,Me/Life",MentalHealth.DeathlifewordBIAT,6,pimh_deathlifeword1biat,17,Their,(unnamed)/Death,580,0,2615998161
486,1,BLOCK1,20,"(unnamed)/Death,Me/Life",MentalHealth.DeathlifewordBIAT,6,pimh_deathlifeword1biat,18,Alive,Me/Life,819,0,2615998161
487,1,BLOCK1,20,"(unnamed)/Death,Me/Life",MentalHealth.DeathlifewordBIAT,6,pimh_deathlifeword1biat,19,Self,Me/Life,2807,0,2615998161
408,2,BLOCK2,20,"(unnamed)/Life,Me/Death",MentalHealth.DeathlifewordBIAT,6,pimh_deathlifeword1biat,0,Die,Me/Death,686,0,2615998161
409,2,BLOCK2,20,"(unnamed)/Life,Me/Death",MentalHealth.DeathlifewordBIAT,6,pimh_deathlifeword1biat,1,Deceased,Me/Death,966,0,2615998161
410,2,BLOCK2,20,"(unnamed)/Life,Me/Death",MentalHealth.DeathlifewordBIAT,6,pimh_deathlifeword1biat,2,Breathing,(unnamed)/Life,416,0,2615998161
411,2,BLOCK2,20,"(unnamed)/Life,Me/Death",MentalHealth.DeathlifewordBIAT,6,pimh_deathlifeword1biat,3,Thrive,(unnamed)/Life,852,0,2615998161
412,2,BLOCK2,20,"(unnamed)/Life,Me/Death",MentalHealth.DeathlifewordBIAT,6,pimh_deathlifeword1biat,4,Thrive,(unnamed)/Life,736,0,2615998161
413,2,BLOCK2,20,"(unnamed)/Life,Me/Death",MentalHealth.DeathlifewordBIAT,6,pimh_deathlifeword1biat,5,They,(unnamed)/Life,841,0,2615998161
414,2,BLOCK2,20,"(unnamed)/Life,Me/Death",MentalHealth.DeathlifewordBIAT,6,pimh_deathlifeword1biat,6,Die,Me/Death,2475,0,2615998161
415,2,BLOCK2,20,"(unnamed)/Life,Me/Death",MentalHealth.DeathlifewordBIAT,6,pimh_deathlifeword1biat,7,Their,(unnamed)/Life,609,0,2615998161
416,2,BLOCK2,20,"(unnamed)/Life,Me/Death",MentalHealth.DeathlifewordBIAT,6,pimh_deathlifeword1biat,8,Dead,Me/Death,1405,0,2615998161
417,2,BLOCK2,20,"(unnamed)/Life,Me/Death",MentalHealth.DeathlifewordBIAT,6,pimh_deathlifeword1biat,9,Myself,Me/Death,545,0,2615998161
418,2,BLOCK2,20,"(unnamed)/Life,Me/Death",MentalHealth.DeathlifewordBIAT,6,pimh_deathlifeword1biat,10,Breathing,(unnamed)/Life,828,1,2615998161
419,2,BLOCK2,20,"(unnamed)/Life,Me/Death",MentalHealth.DeathlifewordBIAT,6,pimh_deathlifeword1biat,11,I,Me/Death,1691,0,2615998161
420,2,BLOCK2,20,"(unnamed)/Life,Me/Death",MentalHealth.DeathlifewordBIAT,6,pimh_deathlifeword1biat,12,Living,(unnamed)/Life,1833,0,2615998161
421,2,BLOCK2,20,"(unnamed)/Life,Me/Death",MentalHealth.DeathlifewordBIAT,6,pimh_deathlifeword1biat,13,Other,(unnamed)/Life,423,0,2615998161
423,2,BLOCK2,20,"(unnamed)/Life,Me/Death",MentalHealth.DeathlifewordBIAT,6,pimh_deathlifeword1biat,14,Deceased,Me/Death,1011,0,2615998161
424,2,BLOCK2,20,"(unnamed)/Life,Me/Death",MentalHealth.DeathlifewordBIAT,6,pimh_deathlifeword1biat,15,Them,(unnamed)/Life,811,0,2615998161
425,2,BLOCK2,20,"(unnamed)/Life,Me/Death",MentalHealth.DeathlifewordBIAT,6,pimh_deathlifeword1biat,16,Alive,(unnamed)/Life,1943,0,2615998161
422,2,BLOCK2,20,"(unnamed)/Life,Me/Death",MentalHealth.DeathlifewordBIAT,6,pimh_deathlifeword1biat,17,Mine,Me/Death,1029,0,2615998161
426,2,BLOCK2,20,"(unnamed)/Life,Me/Death",MentalHealth.DeathlifewordBIAT,6,pimh_deathlifeword1biat,18,Suicide,Me/Death,1364,0,2615998161
427,2,BLOCK2,20,"(unnamed)/Life,Me/Death",MentalHealth.DeathlifewordBIAT,6,pimh_deathlifeword1biat,19,Self,Me/Death,507,0,2615998161
448,3,BLOCK3,20,"(unnamed)/Death,Me/Life",MentalHealth.DeathlifewordBIAT,6,pimh_deathlifeword1biat,0,Dead,(unnamed)/Death,748,0,2615998161
449,3,BLOCK3,20,"(unnamed)/Death,Me/Life",MentalHealth.DeathlifewordBIAT,6,pimh_deathlifeword1biat,1,Die,(unnamed)/Death,1555,0,2615998161
450,3,BLOCK3,20,"(unnamed)/Death,Me/Life",MentalHealth.DeathlifewordBIAT,6,pimh_deathlifeword1biat,2,Breathing,Me/Life,752,0,2615998161
451,3,BLOCK3,20,"(unnamed)/Death,Me/Life",MentalHealth.DeathlifewordBIAT,6,pimh_deathlifeword1biat,3,Alive,Me/Life,809,0,2615998161
452,3,BLOCK3,20,"(unnamed)/Death,Me/Life",MentalHealth.DeathlifewordBIAT,6,pimh_deathlifeword1biat,4,Thrive,Me/Life,524,0,2615998161
453,3,BLOCK3,20,"(unnamed)/Death,Me/Life",MentalHealth.DeathlifewordBIAT,6,pimh_deathlifeword1biat,5,I,Me/Life,561,0,2615998161
454,3,BLOCK3,20,"(unnamed)/Death,Me/Life",MentalHealth.DeathlifewordBIAT,6,pimh_deathlifeword1biat,6,Breathing,Me/Life,649,0,2615998161
455,3,BLOCK3,20,"(unnamed)/Death,Me/Life",MentalHealth.DeathlifewordBIAT,6,pimh_deathlifeword1biat,7,Them,(unnamed)/Death,582,0,2615998161
456,3,BLOCK3,20,"(unnamed)/Death,Me/Life",MentalHealth.DeathlifewordBIAT,6,pimh_deathlifeword1biat,8,Die,(unnamed)/Death,1372,0,2615998161
457,3,BLOCK3,20,"(unnamed)/Death,Me/Life",MentalHealth.DeathlifewordBIAT,6,pimh_deathlifeword1biat,9,Myself,Me/Life,876,0,2615998161
458,3,BLOCK3,20,"(unnamed)/Death,Me/Life",MentalHealth.DeathlifewordBIAT,6,pimh_deathlifeword1biat,10,Dead,(unnamed)/Death,598,0,2615998161
459,3,BLOCK3,20,"(unnamed)/Death,Me/Life",MentalHealth.DeathlifewordBIAT,6,pimh_deathlifeword1biat,11,Their,(unnamed)/Death,564,0,2615998161
460,3,BLOCK3,20,"(unnamed)/Death,Me/Life",MentalHealth.DeathlifewordBIAT,6,pimh_deathlifeword1biat,12,Suicide,(unnamed)/Death,440,0,2615998161
461,3,BLOCK3,20,"(unnamed)/Death,Me/Life",MentalHealth.DeathlifewordBIAT,6,pimh_deathlifeword1biat,13,They,(unnamed)/Death,738,0,2615998161
462,3,BLOCK3,20,"(unnamed)/Death,Me/Life",MentalHealth.DeathlifewordBIAT,6,pimh_deathlifeword1biat,14,Deceased,(unnamed)/Death,808,0,2615998161
463,3,BLOCK3,20,"(unnamed)/Death,Me/Life",MentalHealth.DeathlifewordBIAT,6,pimh_deathlifeword1biat,15,Mine,Me/Life,628,0,2615998161
464,3,BLOCK3,20,"(unnamed)/Death,Me/Life",MentalHealth.DeathlifewordBIAT,6,pimh_deathlifeword1biat,16,Alive,Me/Life,1914,0,2615998161
465,3,BLOCK3,20,"(unnamed)/Death,Me/Life",MentalHealth.DeathlifewordBIAT,6,pimh_deathlifeword1biat,17,Self,Me/Life,760,0,2615998161
466,3,BLOCK3,20,"(unnamed)/Death,Me/Life",MentalHealth.DeathlifewordBIAT,6,pimh_deathlifeword1biat,18,Living,Me/Life,141,0,2615998161
467,3,BLOCK3,20,"(unnamed)/Death,Me/Life",MentalHealth.DeathlifewordBIAT,6,pimh_deathlifeword1biat,19,Other,(unnamed)/Death,531,0,2615998161
428,4,BLOCK4,20,"(unnamed)/Life,Me/Death",MentalHealth.DeathlifewordBIAT,6,pimh_deathlifeword1biat,0,Deceased,Me/Death,602,0,2615998161
429,4,BLOCK4,20,"(unnamed)/Life,Me/Death",MentalHealth.DeathlifewordBIAT,6,pimh_deathlifeword1biat,1,Dead,Me/Death,626,0,2615998161
430,4,BLOCK4,20,"(unnamed)/Life,Me/Death",MentalHealth.DeathlifewordBIAT,6,pimh_deathlifeword1biat,2,Breathing,(unnamed)/Life,8080,0,2615998161
431,4,BLOCK4,20,"(unnamed)/Life,Me/Death",MentalHealth.DeathlifewordBIAT,6,pimh_deathlifeword1biat,3,Thrive,(unnamed)/Life,745,0,2615998161
432,4,BLOCK4,20,"(unnamed)/Life,Me/Death",MentalHealth.DeathlifewordBIAT,6,pimh_deathlifeword1biat,4,Suicide,Me/Death,1303,1,2615998161
433,4,BLOCK4,20,"(unnamed)/Life,Me/Death",MentalHealth.DeathlifewordBIAT,6,pimh_deathlifeword1biat,5,Them,(unnamed)/Life,552,0,2615998161
434,4,BLOCK4,20,"(unnamed)/Life,Me/Death",MentalHealth.DeathlifewordBIAT,6,pimh_deathlifeword1biat,6,Thrive,(unnamed)/Life,1174,0,2615998161
435,4,BLOCK4,20,"(unnamed)/Life,Me/Death",MentalHealth.DeathlifewordBIAT,6,pimh_deathlifeword1biat,7,Self,Me/Death,993,1,2615998161
436,4,BLOCK4,20,"(unnamed)/Life,Me/Death",MentalHealth.DeathlifewordBIAT,6,pimh_deathlifeword1biat,8,Deceased,Me/Death,3053,0,2615998161
437,4,BLOCK4,20,"(unnamed)/Life,Me/Death",MentalHealth.DeathlifewordBIAT,6,pimh_deathlifeword1biat,9,I,Me/Death,10798,0,2615998161
438,4,BLOCK4,20,"(unnamed)/Life,Me/Death",MentalHealth.DeathlifewordBIAT,6,pimh_deathlifeword1biat,10,Living,(unnamed)/Life,1333,0,2615998161
439,4,BLOCK4,20,"(unnamed)/Life,Me/Death",MentalHealth.DeathlifewordBIAT,6,pimh_deathlifeword1biat,11,Their,(unnamed)/Life,564,0,2615998161
440,4,BLOCK4,20,"(unnamed)/Life,Me/Death",MentalHealth.DeathlifewordBIAT,6,pimh_deathlifeword1biat,12,Dead,Me/Death,1455,0,2615998161
441,4,BLOCK4,20,"(unnamed)/Life,Me/Death",MentalHealth.DeathlifewordBIAT,6,pimh_deathlifeword1biat,13,They,(unnamed)/Life,600,0,2615998161
442,4,BLOCK4,20,"(unnamed)/Life,Me/Death",MentalHealth.DeathlifewordBIAT,6,pimh_deathlifeword1biat,14,Die,Me/Death,525,0,2615998161
443,4,BLOCK4,20,"(unnamed)/Life,Me/Death",MentalHealth.DeathlifewordBIAT,6,pimh_deathlifeword1biat,15,Myself,Me/Death,1623,0,2615998161
444,4,BLOCK4,20,"(unnamed)/Life,Me/Death",MentalHealth.DeathlifewordBIAT,6,pimh_deathlifeword1biat,16,Alive,(unnamed)/Life,549,0,2615998161
445,4,BLOCK4,20,"(unnamed)/Life,Me/Death",MentalHealth.DeathlifewordBIAT,6,pimh_deathlifeword1biat,17,Other,(unnamed)/Life,871,0,2615998161
446,4,BLOCK4,20,"(unnamed)/Life,Me/Death",MentalHealth.DeathlifewordBIAT,6,pimh_deathlifeword1biat,18,Breathing,(unnamed)/Life,599,0,2615998161
447,4,BLOCK4,20,"(unnamed)/Life,Me/Death",MentalHealth.DeathlifewordBIAT,6,pimh_deathlifeword1biat,19,Mine,Me/Death,519,0,2615998161
556,0,BLOCK0,20,"(unnamed)/Life,Me/Death",MentalHealth.DeathlifewordBIAT,9,pimh_deathlifeword1biat,0,Alive,(unnamed)/Life,714,0,2615999629
557,0,BLOCK0,20,"(unnamed)/Life,Me/Death",MentalHealth.DeathlifewordBIAT,9,pimh_deathlifeword1biat,1,Deceased,Me/Death,586,0,2615999629
558,0,BLOCK0,20,"(unnamed)/Life,Me/Death",MentalHealth.DeathlifewordBIAT,9,pimh_deathlifeword1biat,2,Die,Me/Death,785,0,2615999629
559,0,BLOCK0,20,"(unnamed)/Life,Me/Death",MentalHealth.DeathlifewordBIAT,9,pimh_deathlifeword1biat,3,Living,(unnamed)/Life,722,0,2615999629
560,0,BLOCK0,20,"(unnamed)/Life,Me/Death",MentalHealth.DeathlifewordBIAT,9,pimh_deathlifeword1biat,4,Deceased,Me/Death,557,0,2615999629
561,0,BLOCK0,20,"(unnamed)/Life,Me/Death",MentalHealth.DeathlifewordBIAT,9,pimh_deathlifeword1biat,5,I,Me/Death,464,0,2615999629
562,0,BLOCK0,20,"(unnamed)/Life,Me/Death",MentalHealth.DeathlifewordBIAT,9,pimh_deathlifeword1biat,6,Breathing,(unnamed)/Life,737,1,2615999629
563,0,BLOCK0,20,"(unnamed)/Life,Me/Death",MentalHealth.DeathlifewordBIAT,9,pimh_deathlifeword1biat,7,Other,(unnamed)/Life,721,1,2615999629
564,0,BLOCK0,20,"(unnamed)/Life,Me/Death",MentalHealth.DeathlifewordBIAT,9,pimh_deathlifeword1biat,8,Alive,(unnamed)/Life,727,0,2615999629
565,0,BLOCK0,20,"(unnamed)/Life,Me/Death",MentalHealth.DeathlifewordBIAT,9,pimh_deathlifeword1biat,9,Mine,Me/Death,718,0,2615999629
566,0,BLOCK0,20,"(unnamed)/Life,Me/Death",MentalHealth.DeathlifewordBIAT,9,pimh_deathlifeword1biat,10,Suicide,Me/Death,1855,0,2615999629
567,0,BLOCK0,20,"(unnamed)/Life,Me/Death",MentalHealth.DeathlifewordBIAT,9,pimh_deathlifeword1biat,11,They,(unnamed)/Life,735,0,2615999629
568,0,BLOCK0,20,"(unnamed)/Life,Me/Death",MentalHealth.DeathlifewordBIAT,9,pimh_deathlifeword1biat,12,Dead,Me/Death,1117,0,2615999629
569,0,BLOCK0,20,"(unnamed)/Life,Me/Death",MentalHealth.DeathlifewordBIAT,9,pimh_deathlifeword1biat,13,Them,(unnamed)/Life,862,0,2615999629
570,0,BLOCK0,20,"(unnamed)/Life,Me/Death",MentalHealth.DeathlifewordBIAT,9,pimh_deathlifeword1biat,14,Living,(unnamed)/Life,504,1,2615999629
571,0,BLOCK0,20,"(unnamed)/Life,Me/Death",MentalHealth.DeathlifewordBIAT,9,pimh_deathlifeword1biat,15,Myself,Me/Death,951,0,2615999629
572,0,BLOCK0,20,"(unnamed)/Life,Me/Death",MentalHealth.DeathlifewordBIAT,9,pimh_deathlifeword1biat,16,Thrive,(unnamed)/Life,641,0,2615999629
573,0,BLOCK0,20,"(unnamed)/Life,Me/Death",MentalHealth.DeathlifewordBIAT,9,pimh_deathlifeword1biat,17,Their,(unnamed)/Life,489,0,2615999629
574,0,BLOCK0,20,"(unnamed)/Life,Me/Death",MentalHealth.DeathlifewordBIAT,9,pimh_deathlifeword1biat,18,Die,Me/Death,1060,0,2615999629
575,0,BLOCK0,20,"(unnamed)/Life,Me/Death",MentalHealth.DeathlifewordBIAT,9,pimh_deathlifeword1biat,19,Self,Me/Death,974,0,2615999629
524,1,BLOCK1,20,"(unnamed)/Death,Me/Life",MentalHealth.DeathlifewordBIAT,9,pimh_deathlifeword1biat,0,Thrive,Me/Life,562,1,2615999629
525,1,BLOCK1,20,"(unnamed)/Death,Me/Life",MentalHealth.DeathlifewordBIAT,9,pimh_deathlifeword1biat,1,Breathing,Me/Life,1346,0,2615999629
526,1,BLOCK1,20,"(unnamed)/Death,Me/Life",MentalHealth.DeathlifewordBIAT,9,pimh_deathlifeword1biat,2,Dead,(unnamed)/Death,569,0,2615999629
527,1,BLOCK1,20,"(unnamed)/Death,Me/Life",MentalHealth.DeathlifewordBIAT,9,pimh_deathlifeword1biat,3,Deceased,(unnamed)/Death,969,0,2615999629
528,1,BLOCK1,20,"(unnamed)/Death,Me/Life",MentalHealth.DeathlifewordBIAT,9,pimh_deathlifeword1biat,4,Die,(unnamed)/Death,986,0,2615999629
529,1,BLOCK1,20,"(unnamed)/Death,Me/Life",MentalHealth.DeathlifewordBIAT,9,pimh_deathlifeword1biat,5,I,Me/Life,597,0,2615999629
530,1,BLOCK1,20,"(unnamed)/Death,Me/Life",MentalHealth.DeathlifewordBIAT,9,pimh_deathlifeword1biat,6,Thrive,Me/Life,716,0,2615999629
531,1,BLOCK1,20,"(unnamed)/Death,Me/Life",MentalHealth.DeathlifewordBIAT,9,pimh_deathlifeword1biat,7,Self,Me/Life,475,0,2615999629
532,1,BLOCK1,20,"(unnamed)/Death,Me/Life",MentalHealth.DeathlifewordBIAT,9,pimh_deathlifeword1biat,8,Suicide,(unnamed)/Death,678,0,2615999629
533,1,BLOCK1,20,"(unnamed)/Death,Me/Life",MentalHealth.DeathlifewordBIAT,9,pimh_deathlifeword1biat,9,Their,(unnamed)/Death,1995,0,2615999629
534,1,BLOCK1,20,"(unnamed)/Death,Me/Life",MentalHealth.DeathlifewordBIAT,9,pimh_deathlifeword1biat,10,Breathing,Me/Life,1604,0,2615999629
535,1,BLOCK1,20,"(unnamed)/Death,Me/Life",MentalHealth.DeathlifewordBIAT,9,pimh_deathlifeword1biat,11,They,(unnamed)/Death,687,0,2615999629
536,1,BLOCK1,20,"(unnamed)/Death,Me/Life",MentalHealth.DeathlifewordBIAT,9,pimh_deathlifeword1biat,12,Alive,Me/Life,4450,0,2615999629
537,1,BLOCK1,20,"(unnamed)/Death,Me/Life",MentalHealth.DeathlifewordBIAT,9,pimh_deathlifeword1biat,13,Mine,Me/Life,602,0,2615999629
538,1,BLOCK1,20,"(unnamed)/Death,Me/Life",MentalHealth.DeathlifewordBIAT,9,pimh_deathlifeword1biat,14,Living,Me/Life,688,1,2615999629
540,1,BLOCK1,20,"(unnamed)/Death,Me/Life",MentalHealth.DeathlifewordBIAT,9,pimh_deathlifeword1biat,15,Them,(unnamed)/Death,735,0,2615999629
541,1,BLOCK1,20,"(unnamed)/Death,Me/Life",MentalHealth.DeathlifewordBIAT,9,pimh_deathlifeword1biat,16,Dead,(unnamed)/Death,731,0,2615999629
542,1,BLOCK1,20,"(unnamed)/Death,Me/Life",MentalHealth.DeathlifewordBIAT,9,pimh_deathlifeword1biat,17,Other,(unnamed)/Death,657,0,2615999629
539,1,BLOCK1,20,"(unnamed)/Death,Me/Life",MentalHealth.DeathlifewordBIAT,9,pimh_deathlifeword1biat,18,Deceased,(unnamed)/Death,474,0,2615999629
543,1,BLOCK1,20,"(unnamed)/Death,Me/Life",MentalHealth.DeathlifewordBIAT,9,pimh_deathlifeword1biat,19,Myself,Me/Life,667,0,2615999629
505,2,BLOCK2,20,"(unnamed)/Life,Me/Death",MentalHealth.DeathlifewordBIAT,9,pimh_deathlifeword1biat,0,Dead,Me/Death,434,0,2615999629
506,2,BLOCK2,20,"(unnamed)/Life,Me/Death",MentalHealth.DeathlifewordBIAT,9,pimh_deathlifeword1biat,1,Living,(unnamed)/Life,583,0,2615999629
507,2,BLOCK2,20,"(unnamed)/Life,Me/Death",MentalHealth.DeathlifewordBIAT,9,pimh_deathlifeword1biat,2,Die,Me/Death,965,0,2615999629
504,2,BLOCK2,20,"(unnamed)/Life,Me/Death",MentalHealth.DeathlifewordBIAT,9,pimh_deathlifeword1biat,3,Breathing,(unnamed)/Life,879,0,2615999629
508,2,BLOCK2,20,"(unnamed)/Life,Me/Death",MentalHealth.DeathlifewordBIAT,9,pimh_deathlifeword1biat,4,Deceased,Me/Death,565,0,2615999629
509,2,BLOCK2,20,"(unnamed)/Life,Me/Death",MentalHealth.DeathlifewordBIAT,9,pimh_deathlifeword1biat,5,Other,(unnamed)/Life,537,0,2615999629
510,2,BLOCK2,20,"(unnamed)/Life,Me/Death",MentalHealth.DeathlifewordBIAT,9,pimh_deathlifeword1biat,6,Living,(unnamed)/Life,715,0,2615999629
511,2,BLOCK2,20,"(unnamed)/Life,Me/Death",MentalHealth.DeathlifewordBIAT,9,pimh_deathlifeword1biat,7,They,(unnamed)/Life,814,0,2615999629
512,2,BLOCK2,20,"(unnamed)/Life,Me/Death",MentalHealth.DeathlifewordBIAT,9,pimh_deathlifeword1biat,8,Die,Me/Death,667,0,2615999629
513,2,BLOCK2,20,"(unnamed)/Life,Me/Death",MentalHealth.DeathlifewordBIAT,9,pimh_deathlifeword1biat,9,Myself,Me/Death,626,0,2615999629
514,2,BLOCK2,20,"(unnamed)/Life,Me/Death",MentalHealth.DeathlifewordBIAT,9,pimh_deathlifeword1biat,10,Breathing,(unnamed)/Life,1105,0,2615999629
515,2,BLOCK2,20,"(unnamed)/Life,Me/Death",MentalHealth.DeathlifewordBIAT,9,pimh_deathlifeword1biat,11,Self,Me/Death,646,0,2615999629
516,2,BLOCK2,20,"(unnamed)/Life,Me/Death",MentalHealth.DeathlifewordBIAT,9,pimh_deathlifeword1biat,12,Alive,(unnamed)/Life,542,0,2615999629
517,2,BLOCK2,20,"(unnamed)/Life,Me/Death",MentalHealth.DeathlifewordBIAT,9,pimh_deathlifeword1biat,13,Mine,Me/Death,642,0,2615999629
518,2,BLOCK2,20,"(unnamed)/Life,Me/Death",MentalHealth.DeathlifewordBIAT,9,pimh_deathlifeword1biat,14,Thrive,(unnamed)/Life,790,0,2615999629
519,2,BLOCK2,20,"(unnamed)/Life,Me/Death",MentalHealth.DeathlifewordBIAT,9,pimh_deathlifeword1biat,15,Them,(unnamed)/Life,637,0,2615999629
520,2,BLOCK2,20,"(unnamed)/Life,Me/Death",MentalHealth.DeathlifewordBIAT,9,pimh_deathlifeword1biat,16,Dead,Me/Death,1197,0,2615999629
521,2,BLOCK2,20,"(unnamed)/Life,Me/Death",MentalHealth.DeathlifewordBIAT,9,pimh_deathlifeword1biat,17,Their,(unnamed)/Life,476,0,2615999629
522,2,BLOCK2,20,"(unnamed)/Life,Me/Death",MentalHealth.DeathlifewordBIAT,9,pimh_deathlifeword1biat,18,Suicide,Me/Death,500,0,2615999629
523,2,BLOCK2,20,"(unnamed)/Life,Me/Death",MentalHealth.DeathlifewordBIAT,9,pimh_deathlifeword1biat,19,I,Me/Death,956,0,2615999629
604,3,BLOCK3,20,"(unnamed)/Death,Me/Life",MentalHealth.DeathlifewordBIAT,9,pimh_deathlifeword1biat,0,Breathing,Me/Life,1216,0,2615999629
605,3,BLOCK3,20,"(unnamed)/Death,Me/Life",MentalHealth.DeathlifewordBIAT,9,pimh_deathlifeword1biat,1,Die,(unnamed)/Death,853,0,2615999629
606,3,BLOCK3,20,"(unnamed)/Death,Me/Life",MentalHealth.DeathlifewordBIAT,9,pimh_deathlifeword1biat,2,Alive,Me/Life,912,0,2615999629
607,3,BLOCK3,20,"(unnamed)/Death,Me/Life",MentalHealth.DeathlifewordBIAT,9,pimh_deathlifeword1biat,3,Deceased,(unnamed)/Death,434,0,2615999629
608,3,BLOCK3,20,"(unnamed)/Death,Me/Life",MentalHealth.DeathlifewordBIAT,9,pimh_deathlifeword1biat,4,Breathing,Me/Life,1011,1,2615999629
609,3,BLOCK3,20,"(unnamed)/Death,Me/Life",MentalHealth.DeathlifewordBIAT,9,pimh_deathlifeword1biat,5,Their,(unnamed)/Death,1125,0,2615999629
610,3,BLOCK3,20,"(unnamed)/Death,Me/Life",MentalHealth.DeathlifewordBIAT,9,pimh_deathlifeword1biat,6,Deceased,(unnamed)/Death,503,0,2615999629
611,3,BLOCK3,20,"(unnamed)/Death,Me/Life",MentalHealth.DeathlifewordBIAT,9,pimh_deathlifeword1biat,7,Them,(unnamed)/Death,492,0,2615999629
612,3,BLOCK3,20,"(unnamed)/Death,Me/Life",MentalHealth.DeathlifewordBIAT,9,pimh_deathlifeword1biat,8,Living,Me/Life,576,0,2615999629
613,3,BLOCK3,20,"(unnamed)/Death,Me/Life",MentalHealth.DeathlifewordBIAT,9,pimh_deathlifeword1biat,9,I,Me/Life,671,0,2615999629
614,3,BLOCK3,20,"(unnamed)/Death,Me/Life",MentalHealth.DeathlifewordBIAT,9,pimh_deathlifeword1biat,10,Dead,(unnamed)/Death,1038,0,2615999629
615,3,BLOCK3,20,"(unnamed)/Death,Me/Life",MentalHealth.DeathlifewordBIAT,9,pimh_deathlifeword1biat,11,Myself,Me/Life,935,0,2615999629
616,3,BLOCK3,20,"(unnamed)/Death,Me/Life",MentalHealth.DeathlifewordBIAT,9,pimh_deathlifeword1biat,12,Die,(unnamed)/Death,900,0,2615999629
617,3,BLOCK3,20,"(unnamed)/Death,Me/Life",MentalHealth.DeathlifewordBIAT,9,pimh_deathlifeword1biat,13,Self,Me/Life,880,0,2615999629
618,3,BLOCK3,20,"(unnamed)/Death,Me/Life",MentalHealth.DeathlifewordBIAT,9,pimh_deathlifeword1biat,14,Thrive,Me/Life,1178,0,2615999629
619,3,BLOCK3,20,"(unnamed)/Death,Me/Life",MentalHealth.DeathlifewordBIAT,9,pimh_deathlifeword1biat,15,Mine,Me/Life,604,0,2615999629
500,3,BLOCK3,20,"(unnamed)/Death,Me/Life",MentalHealth.DeathlifewordBIAT,9,pimh_deathlifeword1biat,16,Alive,Me/Life,686,0,2615999629
501,3,BLOCK3,20,"(unnamed)/Death,Me/Life",MentalHealth.DeathlifewordBIAT,9,pimh_deathlifeword1biat,17,They,(unnamed)/Death,937,0,2615999629
502,3,BLOCK3,20,"(unnamed)/Death,Me/Life",MentalHealth.DeathlifewordBIAT,9,pimh_deathlifeword1biat,18,Suicide,(unnamed)/Death,625,0,2615999629
503,3,BLOCK3,20,"(unnamed)/Death,Me/Life",MentalHealth.DeathlifewordBIAT,9,pimh_deathlifeword1biat,19,Other,(unnamed)/Death,1008,0,2615999629
576,4,BLOCK4,20,"(unnamed)/Life,Me/Death",MentalHealth.DeathlifewordBIAT,9,pimh_deathlifeword1biat,0,Alive,(unnamed)/Life,706,0,2615999629
577,4,BLOCK4,20,"(unnamed)/Life,Me/Death",MentalHealth.DeathlifewordBIAT,9,pimh_deathlifeword1biat,1,Breathing,(unnamed)/Life,534,0,2615999629
578,4,BLOCK4,20,"(unnamed)/Life,Me/Death",MentalHealth.DeathlifewordBIAT,9,pimh_deathlifeword1biat,2,Deceased,Me/Death,841,1,2615999629
579,4,BLOCK4,20,"(unnamed)/Life,Me/Death",MentalHealth.DeathlifewordBIAT,9,pimh_deathlifeword1biat,3,Suicide,Me/Death,1313,0,2615999629
580,4,BLOCK4,20,"(unnamed)/Life,Me/Death",MentalHealth.DeathlifewordBIAT,9,pimh_deathlifeword1biat,4,Thrive,(unnamed)/Life,1090,0,2615999629
581,4,BLOCK4,20,"(unnamed)/Life,Me/Death",MentalHealth.DeathlifewordBIAT,9,pimh_deathlifeword1biat,5,They,(unnamed)/Life,730,1,2615999629
582,4,BLOCK4,20,"(unnamed)/Life,Me/Death",MentalHealth.DeathlifewordBIAT,9,pimh_deathlifeword1biat,6,Die,Me/Death,1104,0,2615999629
583,4,BLOCK4,20,"(unnamed)/Life,Me/Death",MentalHealth.DeathlifewordBIAT,9,pimh_deathlifeword1biat,7,Other,(unnamed)/Life,1011,0,2615999629
584,4,BLOCK4,20,"(unnamed)/Life,Me/Death",MentalHealth.DeathlifewordBIAT,9,pimh_deathlifeword1biat,8,Living,(unnamed)/Life,795,1,2615999629
585,4,BLOCK4,20,"(unnamed)/Life,Me/Death",MentalHealth.DeathlifewordBIAT,9,pimh_deathlifeword1biat,9,I,Me/Death,934,0,2615999629
586,4,BLOCK4,20,"(unnamed)/Life,Me/Death",MentalHealth.DeathlifewordBIAT,9,pimh_deathlifeword1biat,10,Suicide,Me/Death,801,0,2615999629
587,4,BLOCK4,20,"(unnamed)/Life,Me/Death",MentalHealth.DeathlifewordBIAT,9,pimh_deathlifeword1biat,11,Self,Me/Death,770,0,2615999629
588,4,BLOCK4,20,"(unnamed)/Life,Me/Death",MentalHealth.DeathlifewordBIAT,9,pimh_deathlifeword1biat,12,Deceased,Me/Death,743,0,2615999629
589,4,BLOCK4,20,"(unnamed)/Life,Me/Death",MentalHealth.DeathlifewordBIAT,9,pimh_deathlifeword1biat,13,Them,(unnamed)/Life,512,0,2615999629
590,4,BLOCK4,20,"(unnamed)/Life,Me/Death",MentalHealth.DeathlifewordBIAT,9,pimh_deathlifeword1biat,14,Dead,Me/Death,726,0,2615999629
591,4,BLOCK4,20,"(unnamed)/Life,Me/Death",MentalHealth.DeathlifewordBIAT,9,pimh_deathlifeword1biat,15,Mine,Me/Death,599,0,2615999629
592,4,BLOCK4,20,"(unnamed)/Life,Me/Death",MentalHealth.DeathlifewordBIAT,9,pimh_deathlifeword1biat,16,Alive,(unnamed)/Life,696,0,2615999629
593,4,BLOCK4,20,"(unnamed)/Life,Me/Death",MentalHealth.DeathlifewordBIAT,9,pimh_deathlifeword1biat,17,Their,(unnamed)/Life,619,0,2615999629
594,4,BLOCK4,20,"(unnamed)/Life,Me/Death",MentalHealth.DeathlifewordBIAT,9,pimh_deathlifeword1biat,18,Breathing,(unnamed)/Life,628,1,2615999629
595,4,BLOCK4,20,"(unnamed)/Life,Me/Death",MentalHealth.DeathlifewordBIAT,9,pimh_deathlifeword1biat,19,Myself,Me/Death,747,0,2615999629
596,5,BLOCK5,20,"(unnamed)/Death,Me/Life",MentalHealth.DeathlifewordBIAT,9,pimh_deathlifeword1biat,0,Breathing,Me/Life,563,0,2615999629
597,5,BLOCK5,20,"(unnamed)/Death,Me/Life",MentalHealth.DeathlifewordBIAT,9,pimh_deathlifeword1biat,1,Alive,Me/Life,790,0,2615999629
598,5,BLOCK5,20,"(unnamed)/Death,Me/Life",MentalHealth.DeathlifewordBIAT,9,pimh_deathlifeword1biat,2,Suicide,(unnamed)/Death,606,0,2615999629
599,5,BLOCK5,20,"(unnamed)/Death,Me/Life",MentalHealth.DeathlifewordBIAT,9,pimh_deathlifeword1biat,3,Dead,(unnamed)/Death,815,0,2615999629
545,5,BLOCK5,20,"(unnamed)/Death,Me/Life",MentalHealth.DeathlifewordBIAT,9,pimh_deathlifeword1biat,4,Thrive,Me/Life,1167,0,2615999629
546,5,BLOCK5,20,"(unnamed)/Death,Me/Life",MentalHealth.DeathlifewordBIAT,9,pimh_deathlifeword1biat,5,They,(unnamed)/Death,678,0,2615999629
547,5,BLOCK5,20,"(unnamed)/Death,Me/Life",MentalHealth.DeathlifewordBIAT,9,pimh_deathlifeword1biat,6,Die,(unnamed)/Death,699,0,2615999629
544,5,BLOCK5,20,"(unnamed)/Death,Me/Life",MentalHealth.DeathlifewordBIAT,9,pimh_deathlifeword1biat,7,Other,(unnamed)/Death,960,0,2615999629
548,5,BLOCK5,20,"(unnamed)/Death,Me/Life",MentalHealth.DeathlifewordBIAT,9,pimh_deathlifeword1biat,8,Living,Me/Life,1743,0,2615999629
549,5,BLOCK5,20,"(unnamed)/Death,Me/Life",MentalHealth.DeathlifewordBIAT,9,pimh_deathlifeword1biat,9,Myself,Me/Life,564,0,2615999629
550,5,BLOCK5,20,"(unnamed)/Death,Me/Life",MentalHealth.DeathlifewordBIAT,9,pimh_deathlifeword1biat,10,Dead,(unnamed)/Death,741,0,2615999629
551,5,BLOCK5,20,"(unnamed)/Death,Me/Life",MentalHealth.DeathlifewordBIAT,9,pimh_deathlifeword1biat,11,Mine,Me/Life,675,0,2615999629
552,5,BLOCK5,20,"(unnamed)/Death,Me/Life",MentalHealth.DeathlifewordBIAT,9,pimh_deathlifeword1biat,12,Alive,Me/Life,433,0,2615999629
553,5,BLOCK5,20,"(unnamed)/Death,Me/Life",MentalHealth.DeathlifewordBIAT,9,pimh_deathlifeword1biat,13,Their,(unnamed)/Death,608,0,2615999629
554,5,BLOCK5,20,"(unnamed)/Death,Me/Life",MentalHealth.DeathlifewordBIAT,9,pimh_deathlifeword1biat,14,Suicide,(unnamed)/Death,926,1,2615999629
555,5,BLOCK5,20,"(unnamed)/Death,Me/Life",MentalHealth.DeathlifewordBIAT,9,pimh_deathlifeword1biat,15,Them,(unnamed)/Death,731,0,2615999629
600,5,BLOCK5,20,"(unnamed)/Death,Me/Life",MentalHealth.DeathlifewordBIAT,9,pimh_deathlifeword1biat,16,Breathing,Me/Life,926,0,2615999629
601,5,BLOCK5,20,"(unnamed)/Death,Me/Life",MentalHealth.DeathlifewordBIAT,9,pimh_deathlifeword1biat,17,Self,Me/Life,574,0,2615999629
602,5,BLOCK5,20,"(unnamed)/Death,Me/Life",MentalHealth.DeathlifewordBIAT,9,pimh_deathlifeword1biat,18,Deceased,(unnamed)/Death,703,0,2615999629
603,5,BLOCK5,20,"(unnamed)/Death,Me/Life",MentalHealth.DeathlifewordBIAT,9,pimh_deathlifeword1biat,19,I,Me/Life,1279,0,2615999629
732,0,BLOCK0,20,"(unnamed)/Death,Me/Life",MentalHealth.DeathlifewordBIAT,10,pimh_deathlifeword2biat,0,Living,Me/Life,418,0,2615999713
733,0,BLOCK0,20,"(unnamed)/Death,Me/Life",MentalHealth.DeathlifewordBIAT,10,pimh_deathlifeword2biat,1,Deceased,(unnamed)/Death,840,0,2615999713
734,0,BLOCK0,20,"(unnamed)/Death,Me/Life",MentalHealth.DeathlifewordBIAT,10,pimh_deathlifeword2biat,2,Breathing,Me/Life,605,0,2615999713
735,0,BLOCK0,20,"(unnamed)/Death,Me/Life",MentalHealth.DeathlifewordBIAT,10,pimh_deathlifeword2biat,3,Suicide,(unnamed)/Death,1475,0,2615999713
736,0,BLOCK0,20,"(unnamed)/Death,Me/Life",MentalHealth.DeathlifewordBIAT,10,pimh_deathlifeword2biat,4,Alive,Me/Life,953,0,2615999713
737,0,BLOCK0,20,"(unnamed)/Death,Me/Life",MentalHealth.DeathlifewordBIAT,10,pimh_deathlifeword2biat,5,Myself,Me/Life,831,0,2615999713
738,0,BLOCK0,20,"(unnamed)/Death,Me/Life",MentalHealth.DeathlifewordBIAT,10,pimh_deathlifeword2biat,6,Breathing,Me/Life,893,0,2615999713
739,0,BLOCK0,20,"(unnamed)/Death,Me/Life",MentalHealth.DeathlifewordBIAT,10,pimh_deathlifeword2biat,7,They,(unnamed)/Death,1243,0,2615999713
620,0,BLOCK0,20,"(unnamed)/Death,Me/Life",MentalHealth.DeathlifewordBIAT,10,pimh_deathlifeword2biat,8,Die,(unnamed)/Death,523,0,2615999713
621,0,BLOCK0,20,"(unnamed)/Death,Me/Life",MentalHealth.DeathlifewordBIAT,10,pimh_deathlifeword2biat,9,Self,Me/Life,938,0,2615999713
622,0,BLOCK0,20,"(unnamed)/Death,Me/Life",MentalHealth.DeathlifewordBIAT,10,pimh_deathlifeword2biat,10,Suicide,(unnamed)/Death,599,0,2615999713
623,0,BLOCK0,20,"(unnamed)/Death,Me/Life",MentalHealth.DeathlifewordBIAT,10,pimh_deathlifeword2biat,11,Other,(unnamed)/Death,753,0,2615999713
624,0,BLOCK0,20,"(unnamed)/Death,Me/Life",MentalHealth.DeathlifewordBIAT,10,pimh_deathlifeword2biat,12,Dead,(unnamed)/Death,815,0,2615999713
625,0,BLOCK0,20,"(unnamed)/Death,Me/Life",MentalHealth.DeathlifewordBIAT,10,pimh_deathlifeword2biat,13,Them,(unnamed)/Death,462,0,2615999713
626,0,BLOCK0,20,"(unnamed)/Death,Me/Life",MentalHealth.DeathlifewordBIAT,10,pimh_deathlifeword2biat,14,Living,Me/Life,704,0,2615999713
627,0,BLOCK0,20,"(unnamed)/Death,Me/Life",MentalHealth.DeathlifewordBIAT,10,pimh_deathlifeword2biat,15,Their,(unnamed)/Death,693,0,2615999713
628,0,BLOCK0,20,"(unnamed)/Death,Me/Life",MentalHealth.DeathlifewordBIAT,10,pimh_deathlifeword2biat,16,Thrive,Me/Life,712,1,2615999713
629,0,BLOCK0,20,"(unnamed)/Death,Me/Life",MentalHealth.DeathlifewordBIAT,10,pimh_deathlifeword2biat,17,I,Me/Life,1090,0,2615999713
630,0,BLOCK0,20,"(unnamed)/Death,Me/Life",MentalHealth.DeathlifewordBIAT,10,pimh_deathlifeword2biat,18,Deceased,(unnamed)/Death,597,0,2615999713
631,0,BLOCK0,20,"(unnamed)/Death,Me/Life",MentalHealth.DeathlifewordBIAT,10,pimh_deathlifeword2biat,19,Mine,Me/Life,924,0,2615999713
652,1,BLOCK1,20,"(unnamed)/Life,Me/Death",MentalHealth.DeathlifewordBIAT,10,pimh_deathlifeword2biat,0,Suicide,Me/Death,123,0,2615999713
653,1,BLOCK1,20,"(unnamed)/Life,Me/Death",MentalHealth.DeathlifewordBIAT,10,pimh_deathlifeword2biat,1,Living,(unnamed)/Life,1403,0,2615999713
654,1,BLOCK1,20,"(unnamed)/Life,Me/Death",MentalHealth.DeathlifewordBIAT,10,pimh_deathlifeword2biat,2,Die,Me/Death,607,0,2615999713
655,1,BLOCK1,20,"(unnamed)/Life,Me/Death",MentalHealth.DeathlifewordBIAT,10,pimh_deathlifeword2biat,3,Breathing,(unnamed)/Life,732,0,2615999713
676,1,BLOCK1,20,"(unnamed)/Life,Me/Death",MentalHealth.DeathlifewordBIAT,10,pimh_deathlifeword2biat,4,Alive,(unnamed)/Life,1388,0,2615999713
677,1,BLOCK1,20,"(unnamed)/Life,Me/Death",MentalHealth.DeathlifewordBIAT,10,pimh_deathlifeword2biat,5,I,Me/Death,495,0,2615999713
678,1,BLOCK1,20,"(unnamed)/Life,Me/Death",MentalHealth.DeathlifewordBIAT,10,pimh_deathlifeword2biat,6,Dead,Me/Death,649,0,2615999713
679,1,BLOCK1,20,"(unnamed)/Life,Me/Death",MentalHealth.DeathlifewordBIAT,10,pimh_deathlifeword2biat,7,Mine,Me/Death,680,0,2615999713
680,1,BLOCK1,20,"(unnamed)/Life,Me/Death",MentalHealth.DeathlifewordBIAT,10,pimh_deathlifeword2biat,8,Die,Me/Death,846,0,2615999713
681,1,BLOCK1,20,"(unnamed)/Life,Me/Death",MentalHealth.DeathlifewordBIAT,10,pimh_deathlifeword2biat,9,They,(unnamed)/Life,646,0,2615999713
682,1,BLOCK1,20,"(unnamed)/Life,Me/Death",MentalHealth.DeathlifewordBIAT,10,pimh_deathlifeword2biat,10,Breathing,(unnamed)/Life,514,1,2615999713
683,1,BLOCK1,20,"(unnamed)/Life,Me/Death",MentalHealth.DeathlifewordBIAT,10,pimh_deathlifeword2biat,11,Their,(unnamed)/Life,546,0,2615999713
684,1,BLOCK1,20,"(unnamed)/Life,Me/Death",MentalHealth.DeathlifewordBIAT,10,pimh_deathlifeword2biat,12,Living,(unnamed)/Life,4062,0,2615999713
685,1,BLOCK1,20,"(unnamed)/Life,Me/Death",MentalHealth.DeathlifewordBIAT,10,pimh_deathlifeword2biat,13,Myself,Me/Death,1980,0,2615999713
686,1,BLOCK1,20,"(unnamed)/Life,Me/Death",MentalHealth.DeathlifewordBIAT,10,pimh_deathlifeword2biat,14,Suicide,Me/Death,409,0,2615999713
687,1,BLOCK1,20,"(unnamed)/Life,Me/Death",MentalHealth.DeathlifewordBIAT,10,pimh_deathlifeword2biat,15,Other,(unnamed)/Life,1008,0,2615999713
688,1,BLOCK1,20,"(unnamed)/Life,Me/Death",MentalHealth.DeathlifewordBIAT,10,pimh_deathlifeword2biat,16,Deceased,Me/Death,421,0,2615999713
689,1,BLOCK1,20,"(unnamed)/Life,Me/Death",MentalHealth.DeathlifewordBIAT,10,pimh_deathlifeword2biat,17,Self,Me/Death,718,0,2615999713
690,1,BLOCK1,20,"(unnamed)/Life,Me/Death",MentalHealth.DeathlifewordBIAT,10,pimh_deathlifeword2biat,18,Thrive,(unnamed)/Life,696,0,2615999713
691,1,BLOCK1,20,"(unnamed)/Life,Me/Death",MentalHealth.DeathlifewordBIAT,10,pimh_deathlifeword2biat,19,Them,(unnamed)/Life,1012,0,2615999713
713,2,BLOCK2,20,"(unnamed)/Death,Me/Life",MentalHealth.DeathlifewordBIAT,10,pimh_deathlifeword2biat,0,Dead,(unnamed)/Death,566,0,2615999713
674,2,BLOCK2,20,"(unnamed)/Death,Me/Life",MentalHealth.DeathlifewordBIAT,10,pimh_deathlifeword2biat,1,Alive,Me/Life,636,0,2615999713
714,2,BLOCK2,20,"(unnamed)/Death,Me/Life",MentalHealth.DeathlifewordBIAT,10,pimh_deathlifeword2biat,2,Breathing,Me/Life,770,0,2615999713
715,2,BLOCK2,20,"(unnamed)/Death,Me/Life",MentalHealth.DeathlifewordBIAT,10,pimh_deathlifeword2biat,3,Suicide,(unnamed)/Death,3151,0,2615999713
716,2,BLOCK2,20,"(unnamed)/Death,Me/Life",MentalHealth.DeathlifewordBIAT,10,pimh_deathlifeword2biat,4,Deceased,(unnamed)/Death,681,0,2615999713
717,2,BLOCK2,20,"(unnamed)/Death,Me/Life",MentalHealth.DeathlifewordBIAT,10,pimh_deathlifeword2biat,5,They,(unnamed)/Death,1695,0,2615999713
718,2,BLOCK2,20,"(unnamed)/Death,Me/Life",MentalHealth.DeathlifewordBIAT,10,pimh_deathlifeword2biat,6,Die,(unnamed)/Death,876,1,2615999713
719,2,BLOCK2,20,"(unnamed)/Death,Me/Life",MentalHealth.DeathlifewordBIAT,10,pimh_deathlifeword2biat,7,Mine,Me/Life,718,0,2615999713
720,2,BLOCK2,20,"(unnamed)/Death,Me/Life",MentalHealth.DeathlifewordBIAT,10,pimh_deathlifeword2biat,8,Living,Me/Life,672,0,2615999713
721,2,BLOCK2,20,"(unnamed)/Death,Me/Life",MentalHealth.DeathlifewordBIAT,10,pimh_deathlifeword2biat,9,Other,(unnamed)/Death,1711,0,2615999713
722,2,BLOCK2,20,"(unnamed)/Death,Me/Life",MentalHealth.DeathlifewordBIAT,10,pimh_deathlifeword2biat,10,Thrive,Me/Life,944,0,2615999713
723,2,BLOCK2,20,"(unnamed)/Death,Me/Life",MentalHealth.DeathlifewordBIAT,10,pimh_deathlifeword2biat,11,Self,Me/Life,634,0,2615999713
724,2,BLOCK2,20,"(unnamed)/Death,Me/Life",MentalHealth.DeathlifewordBIAT,10,pimh_deathlifeword2biat,12,Alive,Me/Life,664,0,2615999713
725,2,BLOCK2,20,"(unnamed)/Death,Me/Life",MentalHealth.DeathlifewordBIAT,10,pimh_deathlifeword2biat,13,Them,(unnamed)/Death,78,0,2615999713
726,2,BLOCK2,20,"(unnamed)/Death,Me/Life",MentalHealth.DeathlifewordBIAT,10,pimh_deathlifeword2biat,14,Dead,(unnamed)/Death,843,0,2615999713
727,2,BLOCK2,20,"(unnamed)/Death,Me/Life",MentalHealth.DeathlifewordBIAT,10,pimh_deathlifeword2biat,15,I,Me/Life,942,0,2615999713
728,2,BLOCK2,20,"(unnamed)/Death,Me/Life",MentalHealth.DeathlifewordBIAT,10,pimh_deathlifeword2biat,16,Suicide,(unnamed)/Death,684,1,2615999713
729,2,BLOCK2,20,"(unnamed)/Death,Me/Life",MentalHealth.DeathlifewordBIAT,10,pimh_deathlifeword2biat,17,Their,(unnamed)/Death,706,0,2615999713
730,2,BLOCK2,20,"(unnamed)/Death,Me/Life",MentalHealth.DeathlifewordBIAT,10,pimh_deathlifeword2biat,18,Breathing,Me/Life,746,0,2615999713
731,2,BLOCK2,20,"(unnamed)/Death,Me/Life",MentalHealth.DeathlifewordBIAT,10,pimh_deathlifeword2biat,19,Myself,Me/Life,1057,0,2615999713
692,3,BLOCK3,20,"(unnamed)/Life,Me/Death",MentalHealth.DeathlifewordBIAT,10,pimh_deathlifeword2biat,0,Deceased,Me/Death,1186,0,2615999713
693,3,BLOCK3,20,"(unnamed)/Life,Me/Death",MentalHealth.DeathlifewordBIAT,10,pimh_deathlifeword2biat,1,Dead,Me/Death,659,0,2615999713
694,3,BLOCK3,20,"(unnamed)/Life,Me/Death",MentalHealth.DeathlifewordBIAT,10,pimh_deathlifeword2biat,2,Thrive,(unnamed)/Life,1047,0,2615999713
695,3,BLOCK3,20,"(unnamed)/Life,Me/Death",MentalHealth.DeathlifewordBIAT,10,pimh_deathlifeword2biat,3,Alive,(unnamed)/Life,2635,0,2615999713
696,3,BLOCK3,20,"(unnamed)/Life,Me/Death",MentalHealth.DeathlifewordBIAT,10,pimh_deathlifeword2biat,4,Suicide,Me/Death,1759,0,2615999713
697,3,BLOCK3,20,"(unnamed)/Life,Me/Death",MentalHealth.DeathlifewordBIAT,10,pimh_deathlifeword2biat,5,They,(unnamed)/Life,564,0,2615999713
698,3,BLOCK3,20,"(unnamed)/Life,Me/Death",MentalHealth.DeathlifewordBIAT,10,pimh_deathlifeword2biat,6,Die,Me/Death,598,0,2615999713
699,3,BLOCK3,20,"(unnamed)/Life,Me/Death",MentalHealth.DeathlifewordBIAT,10,pimh_deathlifeword2biat,7,I,Me/Death,585,0,2615999713
700,3,BLOCK3,20,"(unnamed)/Life,Me/Death",MentalHealth.DeathlifewordBIAT,10,pimh_deathlifeword2biat,8,Breathing,(unnamed)/Life,1505,0,2615999713
701,3,BLOCK3,20,"(unnamed)/Life,Me/Death",MentalHealth.DeathlifewordBIAT,10,pimh_deathlifeword2biat,9,Mine,Me/Death,1244,0,2615999713
702,3,BLOCK3,20,"(unnamed)/Life,Me/Death",MentalHealth.DeathlifewordBIAT,10,pimh_deathlifeword2biat,10,Living,(unnamed)/Life,1226,0,2615999713
703,3,BLOCK3,20,"(unnamed)/Life,Me/Death",MentalHealth.DeathlifewordBIAT,10,pimh_deathlifeword2biat,11,Their,(unnamed)/Life,1142,0,2615999713
704,3,BLOCK3,20,"(unnamed)/Life,Me/Death",MentalHealth.DeathlifewordBIAT,10,pimh_deathlifeword2biat,12,Alive,(unnamed)/Life,842,0,2615999713
705,3,BLOCK3,20,"(unnamed)/Life,Me/Death",MentalHealth.DeathlifewordBIAT,10,pimh_deathlifeword2biat,13,Self,Me/Death,815,0,2615999713
706,3,BLOCK3,20,"(unnamed)/Life,Me/Death",MentalHealth.DeathlifewordBIAT,10,pimh_deathlifeword2biat,14,Dead,Me/Death,818,0,2615999713
707,3,BLOCK3,20,"(unnamed)/Life,Me/Death",MentalHealth.DeathlifewordBIAT,10,pimh_deathlifeword2biat,15,Them,(unnamed)/Life,632,0,2615999713
709,3,BLOCK3,20,"(unnamed)/Life,Me/Death",MentalHealth.DeathlifewordBIAT,10,pimh_deathlifeword2biat,16,Deceased,Me/Death,841,0,2615999713
710,3,BLOCK3,20,"(unnamed)/Life,Me/Death",MentalHealth.DeathlifewordBIAT,10,pimh_deathlifeword2biat,17,Myself,Me/Death,498,0,2615999713
711,3,BLOCK3,20,"(unnamed)/Life,Me/Death",MentalHealth.DeathlifewordBIAT,10,pimh_deathlifeword2biat,18,Thrive,(unnamed)/Life,566,1,2615999713
708,3,BLOCK3,20,"(unnamed)/Life,Me/Death",MentalHealth.DeathlifewordBIAT,10,pimh_deathlifeword2biat,19,Other,(unnamed)/Life,1052,0,2615999713
632,4,BLOCK4,20,"(unnamed)/Death,Me/Life",MentalHealth.DeathlifewordBIAT,10,pimh_deathlifeword2biat,0,Living,Me/Life,512,0,2615999713
633,4,BLOCK4,20,"(unnamed)/Death,Me/Life",MentalHealth.DeathlifewordBIAT,10,pimh_deathlifeword2biat,1,Die,(unnamed)/Death,572,0,2615999713
634,4,BLOCK4,20,"(unnamed)/Death,Me/Life",MentalHealth.DeathlifewordBIAT,10,pimh_deathlifeword2biat,2,Suicide,(unnamed)/Death,693,0,2615999713
635,4,BLOCK4,20,"(unnamed)/Death,Me/Life",MentalHealth.DeathlifewordBIAT,10,pimh_deathlifeword2biat,3,Alive,Me/Life,631,0,2615999713
636,4,BLOCK4,20,"(unnamed)/Death,Me/Life",MentalHealth.DeathlifewordBIAT,10,pimh_deathlifeword2biat,4,Alive,Me/Life,859,0,2615999713
637,4,BLOCK4,20,"(unnamed)/Death,Me/Life",MentalHealth.DeathlifewordBIAT,10,pimh_deathlifeword2biat,5,Their,(unnamed)/Death,768,0,2615999713
638,4,BLOCK4,20,"(unnamed)/Death,Me/Life",MentalHealth.DeathlifewordBIAT,10,pimh_deathlifeword2biat,6,Die,(unnamed)/Death,554,0,2615999713
640,4,BLOCK4,20,"(unnamed)/Death,Me/Life",MentalHealth.DeathlifewordBIAT,10,pimh_deathlifeword2biat,7,Self,Me/Life,1039,0,2615999713
641,4,BLOCK4,20,"(unnamed)/Death,Me/Life",MentalHealth.DeathlifewordBIAT,10,pimh_deathlifeword2biat,8,Deceased,(unnamed)/Death,561,0,2615999713
642,4,BLOCK4,20,"(unnamed)/Death,Me/Life",MentalHealth.DeathlifewordBIAT,10,pimh_deathlifeword2biat,9,Other,(unnamed)/Death,480,0,2615999713
639,4,BLOCK4,20,"(unnamed)/Death,Me/Life",MentalHealth.DeathlifewordBIAT,10,pimh_deathlifeword2biat,10,Breathing,Me/Life,707,0,2615999713
643,4,BLOCK4,20,"(unnamed)/Death,Me/Life",MentalHealth.DeathlifewordBIAT,10,pimh_deathlifeword2biat,11,I,Me/Life,1818,0,2615999713
644,4,BLOCK4,20,"(unnamed)/Death,Me/Life",MentalHealth.DeathlifewordBIAT,10,pimh_deathlifeword2biat,12,Thrive,Me/Life,416,0,2615999713
645,4,BLOCK4,20,"(unnamed)/Death,Me/Life",MentalHealth.DeathlifewordBIAT,10,pimh_deathlifeword2biat,13,Them,(unnamed)/Death,975,0,2615999713
646,4,BLOCK4,20,"(unnamed)/Death,Me/Life",MentalHealth.DeathlifewordBIAT,10,pimh_deathlifeword2biat,14,Dead,(unnamed)/Death,436,0,2615999713
647,4,BLOCK4,20,"(unnamed)/Death,Me/Life",MentalHealth.DeathlifewordBIAT,10,pimh_deathlifeword2biat,15,Mine,Me/Life,791,0,2615999713
648,4,BLOCK4,20,"(unnamed)/Death,Me/Life",MentalHealth.DeathlifewordBIAT,10,pimh_deathlifeword2biat,16,Suicide,(unnamed)/Death,572,0,2615999713
649,4,BLOCK4,20,"(unnamed)/Death,Me/Life",MentalHealth.DeathlifewordBIAT,10,pimh_deathlifeword2biat,17,They,(unnamed)/Death,544,0,2615999713
650,4,BLOCK4,20,"(unnamed)/Death,Me/Life",MentalHealth.DeathlifewordBIAT,10,pimh_deathlifeword2biat,18,Living,Me/Life,490,0,2615999713
651,4,BLOCK4,20,"(unnamed)/Death,Me/Life",MentalHealth.DeathlifewordBIAT,10,pimh_deathlifeword2biat,19,Myself,Me/Life,734,0,2615999713
657,5,BLOCK5,20,"(unnamed)/Life,Me/Death",MentalHealth.DeathlifewordBIAT,10,pimh_deathlifeword2biat,0,Living,(unnamed)/Life,1006,0,2615999713
658,5,BLOCK5,20,"(unnamed)/Life,Me/Death",MentalHealth.DeathlifewordBIAT,10,pimh_deathlifeword2biat,1,Suicide,Me/Death,985,0,2615999713
659,5,BLOCK5,20,"(unnamed)/Life,Me/Death",MentalHealth.DeathlifewordBIAT,10,pimh_deathlifeword2biat,2,Alive,(unnamed)/Life,1007,0,2615999713
656,5,BLOCK5,20,"(unnamed)/Life,Me/Death",MentalHealth.DeathlifewordBIAT,10,pimh_deathlifeword2biat,3,Dead,Me/Death,1535,0,2615999713
660,5,BLOCK5,20,"(unnamed)/Life,Me/Death",MentalHealth.DeathlifewordBIAT,10,pimh_deathlifeword2biat,4,Thrive,(unnamed)/Life,1477,0,2615999713
661,5,BLOCK5,20,"(unnamed)/Life,Me/Death",MentalHealth.DeathlifewordBIAT,10,pimh_deathlifeword2biat,5,They,(unnamed)/Life,769,0,2615999713
662,5,BLOCK5,20,"(unnamed)/Life,Me/Death",MentalHealth.DeathlifewordBIAT,10,pimh_deathlifeword2biat,6,Die,Me/Death,1238,0,2615999713
663,5,BLOCK5,20,"(unnamed)/Life,Me/Death",MentalHealth.DeathlifewordBIAT,10,pimh_deathlifeword2biat,7,Mine,Me/Death,527,1,2615999713
